File: fig_2_xrd_bet/XRD/Ni90Fe10_Ni_BB_Dtex.xy
5.00000 37889.000
5.06000 38107.000
5.12000 37411.000
5.18000 37221.000
5.24000 37225.000
5.30000 36843.000
5.36000 36872.000
5.42000 36657.000
5.48000 36544.000
5.54000 36677.000
5.60000 36203.000
5.66000 35912.000
5.72000 36031.000
5.78000 35587.000
5.84000 35444.000
5.90000 35603.000
5.96000 35261.000
6.02000 34953.000
6.08000 35024.000
6.14000 34733.000
6.20000 34751.000
6.26000 34737.000
6.32000 34581.000
6.38000 34723.000
6.44000 34520.000
6.50000 34386.000
6.56000 34304.000
6.62000 34024.000
6.68000 34148.000
6.74000 34016.000
6.80000 33932.000
6.86000 33626.000
6.92000 33469.000
6.98000 33240.000
7.04000 33167.000
7.10000 32992.000
7.16000 32852.000
7.22000 33085.000
7.28000 32816.000
7.34000 32702.000
7.40000 32671.000
7.46000 32513.000
7.52000 32286.000
7.58000 32567.000
7.64000 32445.000
7.70000 32434.000
7.76000 32142.000
7.82000 32101.000
7.88000 32152.000
7.94000 32147.000
8.00000 31918.000
8.06000 31759.000
8.12000 31821.000
8.18000 31302.000
8.24000 31499.000
8.30000 31428.000
8.36000 31446.000
8.42000 31158.000
8.48000 31121.000
8.54000 30899.000
8.60000 30958.000
8.66000 30530.000
8.72000 30617.000
8.78000 30780.000
8.84000 30620.000
8.90000 30590.000
8.96000 30140.000
9.02000 30057.000
9.08000 30172.000
9.14000 29967.000
9.20000 29839.000
9.26000 29925.000
9.32000 29688.000
9.38000 29491.000
9.44000 29626.000
9.50000 29222.000
9.56000 29248.000
9.62000 29132.000
9.68000 29011.000
9.74000 28691.000
9.80000 28836.000
9.86000 28686.000
9.92000 28425.000
9.98000 28575.000
10.04000 28432.000
10.10000 28314.000
10.16000 28013.000
10.22000 28089.000
10.28000 27881.000
10.34000 27687.000
10.40000 27554.000
10.46000 27708.000
10.52000 27710.000
10.58000 27323.000
10.64000 27570.000
10.70000 27379.000
10.76000 27273.000
10.82000 27297.000
10.88000 27112.000
10.94000 26772.000
11.00000 26640.000
11.06000 26576.000
11.12000 26635.000
11.18000 26528.000
11.24000 26606.000
11.30000 26167.000
11.36000 26234.000
11.42000 26059.000
11.48000 26158.000
11.54000 26055.000
11.60000 25871.000
11.66000 26246.000
11.72000 25778.000
11.78000 25863.000
11.84000 25887.000
11.90000 25552.000
11.96000 25646.000
12.02000 25515.000
12.08000 25391.000
12.14000 25296.000
12.20000 25296.000
12.26000 25300.000
12.32000 24946.000
12.38000 25006.000
12.44000 24956.000
12.50000 24828.000
12.56000 24870.000
12.62000 24660.000
12.68000 24770.000
12.74000 24650.000
12.80000 24879.000
12.86000 24766.000
12.92000 24286.000
12.98000 24345.000
13.04000 24282.000
13.10000 24287.000
13.16000 24257.000
13.22000 24436.000
13.28000 24172.000
13.34000 24322.000
13.40000 23996.000
13.46000 23877.000
13.52000 23851.000
13.58000 23646.000
13.64000 23746.000
13.70000 23644.000
13.76000 23627.000
13.82000 23662.000
13.88000 23312.000
13.94000 23443.000
14.00000 23445.000
14.06000 23503.000
14.12000 23407.000
14.18000 23234.000
14.24000 23387.000
14.30000 23244.000
14.36000 23242.000
14.42000 23306.000
14.48000 23028.000
14.54000 23097.000
14.60000 22982.000
14.66000 23162.000
14.72000 22868.000
14.78000 22761.000
14.84000 22857.000
14.90000 22696.000
14.96000 22905.000
15.02000 22804.000
15.08000 22675.000
15.14000 22565.000
15.20000 22740.000
15.26000 22824.000
15.32000 22364.000
15.38000 22437.000
15.44000 22559.000
15.50000 22647.000
15.56000 24048.000
15.62000 22512.000
15.68000 22497.000
15.74000 22222.000
15.80000 22385.000
15.86000 22253.000
15.92000 22390.000
15.98000 22056.000
16.04000 21991.000
16.10000 22426.000
16.16000 22299.000
16.22000 22077.000
16.28000 22085.000
16.34000 22094.000
16.40000 21753.000
16.46000 21887.000
16.52000 21980.000
16.58000 22126.000
16.64000 21667.000
16.70000 21864.000
16.76000 21777.000
16.82000 21765.000
16.88000 21473.000
16.94000 21681.000
17.00000 21545.000
17.06000 22089.000
17.12000 21839.000
17.18000 21668.000
17.24000 21796.000
17.30000 21691.000
17.36000 21808.000
17.42000 21642.000
17.48000 21801.000
17.54000 21618.000
17.60000 21529.000
17.66000 21827.000
17.72000 21679.000
17.78000 21630.000
17.84000 21678.000
17.90000 21677.000
17.96000 21769.000
18.02000 21780.000
18.08000 21498.000
18.14000 21781.000
18.20000 21578.000
18.26000 22182.000
18.32000 21702.000
18.38000 21913.000
18.44000 21634.000
18.50000 21524.000
18.56000 21601.000
18.62000 21766.000
18.68000 21666.000
18.74000 21806.000
18.80000 21326.000
18.86000 21364.000
18.92000 21790.000
18.98000 21745.000
19.04000 21607.000
19.10000 21419.000
19.16000 21527.000
19.22000 21610.000
19.28000 21440.000
19.34000 21577.000
19.40000 21545.000
19.46000 21562.000
19.52000 21557.000
19.58000 21706.000
19.64000 21589.000
19.70000 21431.000
19.76000 21719.000
19.82000 21404.000
19.88000 21691.000
19.94000 21753.000
20.00000 21512.000
20.06000 21418.000
20.12000 21523.000
20.18000 21568.000
20.24000 21682.000
20.30000 21497.000
20.36000 21737.000
20.42000 21620.000
20.48000 21589.000
20.54000 21559.000
20.60000 21516.000
20.66000 21771.000
20.72000 21731.000
20.78000 21665.000
20.84000 21514.000
20.90000 21467.000
20.96000 21377.000
21.02000 21928.000
21.08000 21692.000
21.14000 21820.000
21.20000 21698.000
21.26000 21858.000
21.32000 21527.000
21.38000 21751.000
21.44000 21601.000
21.50000 21721.000
21.56000 21593.000
21.62000 21611.000
21.68000 21940.000
21.74000 21803.000
21.80000 21804.000
21.86000 21857.000
21.92000 21719.000
21.98000 21824.000
22.04000 21667.000
22.10000 21692.000
22.16000 21470.000
22.22000 21908.000
22.28000 21984.000
22.34000 22169.000
22.40000 21764.000
22.46000 22019.000
22.52000 22018.000
22.58000 21781.000
22.64000 21983.000
22.70000 21983.000
22.76000 21803.000
22.82000 21899.000
22.88000 21855.000
22.94000 21930.000
23.00000 22040.000
23.06000 21980.000
23.12000 22086.000
23.18000 21972.000
23.24000 21957.000
23.30000 22034.000
23.36000 22197.000
23.42000 22015.000
23.48000 22277.000
23.54000 22228.000
23.60000 22038.000
23.66000 22201.000
23.72000 22126.000
23.78000 21928.000
23.84000 22176.000
23.90000 22092.000
23.96000 22228.000
24.02000 22034.000
24.08000 22153.000
24.14000 22323.000
24.20000 22167.000
24.26000 22335.000
24.32000 22125.000
24.38000 22389.000
24.44000 22331.000
24.50000 22346.000
24.56000 22544.000
24.62000 22508.000
24.68000 22597.000
24.74000 22458.000
24.80000 22397.000
24.86000 22831.000
24.92000 22690.000
24.98000 22913.000
25.04000 22372.000
25.10000 22490.000
25.16000 22806.000
25.22000 22753.000
25.28000 22607.000
25.34000 22882.000
25.40000 22814.000
25.46000 22762.000
25.52000 23104.000
25.58000 22723.000
25.64000 22857.000
25.70000 22878.000
25.76000 22759.000
25.82000 22901.000
25.88000 23283.000
25.94000 23113.000
26.00000 23149.000
26.06000 23060.000
26.12000 23410.000
26.18000 22967.000
26.24000 23362.000
26.30000 23135.000
26.36000 23356.000
26.42000 23218.000
26.48000 23469.000
26.54000 23226.000
26.60000 23364.000
26.66000 23461.000
26.72000 23668.000
26.78000 23398.000
26.84000 23367.000
26.90000 23481.000
26.96000 23738.000
27.02000 23306.000
27.08000 23576.000
27.14000 23657.000
27.20000 23550.000
27.26000 23714.000
27.32000 23718.000
27.38000 23751.000
27.44000 24113.000
27.50000 24060.000
27.56000 23685.000
27.62000 24018.000
27.68000 23762.000
27.74000 23835.000
27.80000 23601.000
27.86000 23910.000
27.92000 23957.000
27.98000 24443.000
28.04000 24002.000
28.10000 24156.000
28.16000 24399.000
28.22000 24219.000
28.28000 24413.000
28.34000 24561.000
28.40000 24563.000
28.46000 24225.000
28.52000 24456.000
28.58000 24610.000
28.64000 24572.000
28.70000 24264.000
28.76000 24442.000
28.82000 24483.000
28.88000 24628.000
28.94000 24490.000
29.00000 24439.000
29.06000 24727.000
29.12000 24724.000
29.18000 24363.000
29.24000 24645.000
29.30000 24639.000
29.36000 24838.000
29.42000 24555.000
29.48000 24702.000
29.54000 24830.000
29.60000 24948.000
29.66000 24804.000
29.72000 24576.000
29.78000 24998.000
29.84000 24793.000
29.90000 25077.000
29.96000 25190.000
30.02000 25334.000
30.08000 25142.000
30.14000 25120.000
30.20000 25019.000
30.26000 25408.000
30.32000 25276.000
30.38000 25153.000
30.44000 25016.000
30.50000 24981.000
30.56000 25279.000
30.62000 25111.000
30.68000 25261.000
30.74000 25307.000
30.80000 25355.000
30.86000 25409.000
30.92000 25520.000
30.98000 25876.000
31.04000 25499.000
31.10000 26022.000
31.16000 25384.000
31.22000 25662.000
31.28000 25539.000
31.34000 26119.000
31.40000 26886.000
31.46000 26249.000
31.52000 26040.000
31.58000 26247.000
31.64000 25952.000
31.70000 26013.000
31.76000 26274.000
31.82000 26124.000
31.88000 26249.000
31.94000 26215.000
32.00000 26444.000
32.06000 26374.000
32.12000 26198.000
32.18000 26348.000
32.24000 26368.000
32.30000 26701.000
32.36000 26676.000
32.42000 26644.000
32.48000 26766.000
32.54000 26767.000
32.60000 26771.000
32.66000 27039.000
32.72000 26985.000
32.78000 27086.000
32.84000 27349.000
32.90000 27276.000
32.96000 27425.000
33.02000 27620.000
33.08000 27751.000
33.14000 27868.000
33.20000 27967.000
33.26000 28115.000
33.32000 28518.000
33.38000 28448.000
33.44000 28726.000
33.50000 28771.000
33.56000 29601.000
33.62000 29463.000
33.68000 29511.000
33.74000 29490.000
33.80000 29818.000
33.86000 30105.000
33.92000 30119.000
33.98000 30267.000
34.04000 30336.000
34.10000 30187.000
34.16000 30422.000
34.22000 30858.000
34.28000 30551.000
34.34000 30738.000
34.40000 30557.000
34.46000 30928.000
34.52000 30511.000
34.58000 30512.000
34.64000 30696.000
34.70000 30572.000
34.76000 30897.000
34.82000 30442.000
34.88000 30944.000
34.94000 31046.000
35.00000 30581.000
35.06000 30331.000
35.12000 30340.000
35.18000 30232.000
35.24000 30177.000
35.30000 30090.000
35.36000 29996.000
35.42000 29840.000
35.48000 30077.000
35.54000 29882.000
35.60000 30050.000
35.66000 29764.000
35.72000 29826.000
35.78000 29783.000
35.84000 29960.000
35.90000 29733.000
35.96000 29640.000
36.02000 29909.000
36.08000 29797.000
36.14000 29660.000
36.20000 29813.000
36.26000 29792.000
36.32000 29469.000
36.38000 29732.000
36.44000 29614.000
36.50000 29618.000
36.56000 29711.000
36.62000 29347.000
36.68000 29600.000
36.74000 29533.000
36.80000 29307.000
36.86000 29466.000
36.92000 29433.000
36.98000 29369.000
37.04000 29319.000
37.10000 29356.000
37.16000 29204.000
37.22000 29326.000
37.28000 29137.000
37.34000 28826.000
37.40000 28963.000
37.46000 29129.000
37.52000 28945.000
37.58000 28821.000
37.64000 29127.000
37.70000 29189.000
37.76000 28953.000
37.82000 29196.000
37.88000 28983.000
37.94000 28786.000
38.00000 28966.000
38.06000 28544.000
38.12000 29059.000
38.18000 28854.000
38.24000 28967.000
38.30000 28928.000
38.36000 28931.000
38.42000 28897.000
38.48000 28899.000
38.54000 28519.000
38.60000 28531.000
38.66000 28703.000
38.72000 28764.000
38.78000 28596.000
38.84000 28756.000
38.90000 28629.000
38.96000 28835.000
39.02000 28554.000
39.08000 28633.000
39.14000 28506.000
39.20000 28436.000
39.26000 28551.000
39.32000 28563.000
39.38000 28687.000
39.44000 28621.000
39.50000 28556.000
39.56000 28054.000
39.62000 28295.000
39.68000 28421.000
39.74000 28119.000
39.80000 28491.000
39.86000 28127.000
39.92000 28284.000
39.98000 28269.000
40.04000 28729.000
40.10000 28157.000
40.16000 28035.000
40.22000 28103.000
40.28000 28277.000
40.34000 28289.000
40.40000 28483.000
40.46000 28321.000
40.52000 28337.000
40.58000 28312.000
40.64000 28097.000
40.70000 28225.000
40.76000 28147.000
40.82000 28319.000
40.88000 28383.000
40.94000 27981.000
41.00000 28035.000
41.06000 28063.000
41.12000 27989.000
41.18000 28073.000
41.24000 28126.000
41.30000 28081.000
41.36000 28101.000
41.42000 28045.000
41.48000 28187.000
41.54000 28041.000
41.60000 28065.000
41.66000 28014.000
41.72000 28060.000
41.78000 28070.000
41.84000 27929.000
41.90000 28231.000
41.96000 28191.000
42.02000 28147.000
42.08000 27956.000
42.14000 27988.000
42.20000 27602.000
42.26000 28202.000
42.32000 27875.000
42.38000 28032.000
42.44000 28013.000
42.50000 28074.000
42.56000 28055.000
42.62000 27930.000
42.68000 27886.000
42.74000 27801.000
42.80000 28017.000
42.86000 27826.000
42.92000 28014.000
42.98000 27688.000
43.04000 27959.000
43.10000 27788.000
43.16000 28075.000
43.22000 27881.000
43.28000 27953.000
43.34000 28004.000
43.40000 28060.000
43.46000 27828.000
43.52000 27941.000
43.58000 28043.000
43.64000 27664.000
43.70000 27943.000
43.76000 27879.000
43.82000 27767.000
43.88000 27836.000
43.94000 27591.000
44.00000 27774.000
44.06000 27909.000
44.12000 27819.000
44.18000 27882.000
44.24000 27920.000
44.30000 27716.000
44.36000 27710.000
44.42000 27948.000
44.48000 27867.000
44.54000 27828.000
44.60000 27792.000
44.66000 27970.000
44.72000 27676.000
44.78000 27800.000
44.84000 27547.000
44.90000 27738.000
44.96000 27400.000
45.02000 27789.000
45.08000 27694.000
45.14000 27611.000
45.20000 27512.000
45.26000 27409.000
45.32000 27374.000
45.38000 27318.000
45.44000 27275.000
45.50000 27528.000
45.56000 27738.000
45.62000 27501.000
45.68000 27356.000
45.74000 27105.000
45.80000 27183.000
45.86000 27531.000
45.92000 27499.000
45.98000 27023.000
46.04000 27182.000
46.10000 27168.000
46.16000 27442.000
46.22000 27209.000
46.28000 27219.000
46.34000 27246.000
46.40000 27151.000
46.46000 27047.000
46.52000 27163.000
46.58000 26962.000
46.64000 27037.000
46.70000 27177.000
46.76000 26877.000
46.82000 27022.000
46.88000 26819.000
46.94000 26794.000
47.00000 26808.000
47.06000 26767.000
47.12000 26678.000
47.18000 27000.000
47.24000 26656.000
47.30000 26721.000
47.36000 26764.000
47.42000 26673.000
47.48000 26760.000
47.54000 26567.000
47.60000 26542.000
47.66000 26756.000
47.72000 26354.000
47.78000 26491.000
47.84000 26146.000
47.90000 26576.000
47.96000 26064.000
48.02000 26263.000
48.08000 26318.000
48.14000 26325.000
48.20000 26227.000
48.26000 25861.000
48.32000 26092.000
48.38000 25986.000
48.44000 26064.000
48.50000 26150.000
48.56000 25690.000
48.62000 26065.000
48.68000 25639.000
48.74000 25897.000
48.80000 25831.000
48.86000 25749.000
48.92000 25827.000
48.98000 25408.000
49.04000 25764.000
49.10000 25790.000
49.16000 25734.000
49.22000 25667.000
49.28000 25619.000
49.34000 25483.000
49.40000 25565.000
49.46000 25445.000
49.52000 25540.000
49.58000 25382.000
49.64000 25355.000
49.70000 25430.000
49.76000 25213.000
49.82000 25257.000
49.88000 25336.000
49.94000 25013.000
50.00000 25065.000
50.06000 25080.000
50.12000 25108.000
50.18000 24986.000
50.24000 25129.000
50.30000 25215.000
50.36000 24858.000
50.42000 25086.000
50.48000 25014.000
50.54000 25031.000
50.60000 24846.000
50.66000 24448.000
50.72000 24779.000
50.78000 24779.000
50.84000 24619.000
50.90000 24636.000
50.96000 24607.000
51.02000 24928.000
51.08000 24242.000
51.14000 24736.000
51.20000 24748.000
51.26000 24814.000
51.32000 24548.000
51.38000 24627.000
51.44000 24379.000
51.50000 24581.000
51.56000 24389.000
51.62000 24384.000
51.68000 24391.000
51.74000 24570.000
51.80000 24333.000
51.86000 24502.000
51.92000 24171.000
51.98000 24182.000
52.04000 24205.000
52.10000 24018.000
52.16000 24105.000
52.22000 24279.000
52.28000 24224.000
52.34000 24217.000
52.40000 24159.000
52.46000 24189.000
52.52000 23820.000
52.58000 23903.000
52.64000 24154.000
52.70000 23980.000
52.76000 24159.000
52.82000 24121.000
52.88000 23877.000
52.94000 24067.000
53.00000 24031.000
53.06000 23744.000
53.12000 23733.000
53.18000 23893.000
53.24000 23910.000
53.30000 23778.000
53.36000 23713.000
53.42000 23591.000
53.48000 23684.000
53.54000 23806.000
53.60000 23649.000
53.66000 23871.000
53.72000 24071.000
53.78000 24146.000
53.84000 23954.000
53.90000 23806.000
53.96000 23629.000
54.02000 23468.000
54.08000 23852.000
54.14000 23510.000
54.20000 23680.000
54.26000 23488.000
54.32000 23580.000
54.38000 23526.000
54.44000 23475.000
54.50000 23674.000
54.56000 23391.000
54.62000 23433.000
54.68000 23617.000
54.74000 23501.000
54.80000 23357.000
54.86000 23430.000
54.92000 23552.000
54.98000 23373.000
55.04000 23467.000
55.10000 23478.000
55.16000 23222.000
55.22000 23408.000
55.28000 23333.000
55.34000 23610.000
55.40000 23073.000
55.46000 23332.000
55.52000 23332.000
55.58000 23260.000
55.64000 23426.000
55.70000 23330.000
55.76000 23345.000
55.82000 23250.000
55.88000 23703.000
55.94000 23322.000
56.00000 23245.000
56.06000 23510.000
56.12000 23036.000
56.18000 23454.000
56.24000 22940.000
56.30000 23488.000
56.36000 23325.000
56.42000 23309.000
56.48000 23273.000
56.54000 23266.000
56.60000 23100.000
56.66000 23252.000
56.72000 23323.000
56.78000 23075.000
56.84000 23022.000
56.90000 22974.000
56.96000 23463.000
57.02000 23268.000
57.08000 23315.000
57.14000 23227.000
57.20000 23135.000
57.26000 23274.000
57.32000 23148.000
57.38000 23071.000
57.44000 23500.000
57.50000 23098.000
57.56000 23117.000
57.62000 23430.000
57.68000 23004.000
57.74000 23216.000
57.80000 23309.000
57.86000 23341.000
57.92000 23172.000
57.98000 23216.000
58.04000 23353.000
58.10000 23345.000
58.16000 23376.000
58.22000 23284.000
58.28000 23494.000
58.34000 23426.000
58.40000 23291.000
58.46000 23255.000
58.52000 23350.000
58.58000 23351.000
58.64000 23516.000
58.70000 23500.000
58.76000 23580.000
58.82000 23465.000
58.88000 23770.000
58.94000 23387.000
59.00000 23731.000
59.06000 23720.000
59.12000 23596.000
59.18000 23695.000
59.24000 24024.000
59.30000 24087.000
59.36000 23984.000
59.42000 23980.000
59.48000 24166.000
59.54000 24235.000
59.60000 24130.000
59.66000 24339.000
59.72000 24486.000
59.78000 24204.000
59.84000 24293.000
59.90000 24275.000
59.96000 24750.000
60.02000 24640.000
60.08000 24394.000
60.14000 24971.000
60.20000 25095.000
60.26000 24589.000
60.32000 24829.000
60.38000 24728.000
60.44000 24743.000
60.50000 24631.000
60.56000 24957.000
60.62000 24907.000
60.68000 24911.000
60.74000 24729.000
60.80000 24656.000
60.86000 24956.000
60.92000 25038.000
60.98000 24764.000
61.04000 24666.000
61.10000 24489.000
61.16000 24364.000
61.22000 24390.000
61.28000 24569.000
61.34000 24440.000
61.40000 24252.000
61.46000 24396.000
61.52000 24201.000
61.58000 24346.000
61.64000 24195.000
61.70000 23998.000
61.76000 24008.000
61.82000 23685.000
61.88000 23804.000
61.94000 23649.000
62.00000 23803.000
62.06000 23858.000
62.12000 23561.000
62.18000 23710.000
62.24000 23362.000
62.30000 23321.000
62.36000 23220.000
62.42000 23539.000
62.48000 23373.000
62.54000 23282.000
62.60000 23408.000
62.66000 23072.000
62.72000 23043.000
62.78000 23184.000
62.84000 23281.000
62.90000 22913.000
62.96000 23093.000
63.02000 23134.000
63.08000 23013.000
63.14000 22823.000
63.20000 22888.000
63.26000 22782.000
63.32000 22577.000
63.38000 22791.000
63.44000 22694.000
63.50000 22558.000
63.56000 22670.000
63.62000 22617.000
63.68000 22389.000
63.74000 22659.000
63.80000 22344.000
63.86000 22403.000
63.92000 22538.000
63.98000 22547.000
64.04000 22469.000
64.10000 22463.000
64.16000 22337.000
64.22000 22315.000
64.28000 22404.000
64.34000 22330.000
64.40000 22277.000
64.46000 22315.000
64.52000 22080.000
64.58000 22208.000
64.64000 22364.000
64.70000 22318.000
64.76000 22161.000
64.82000 22048.000
64.88000 22183.000
64.94000 21957.000
65.00000 22190.000
65.06000 22065.000
65.12000 22336.000
65.18000 21890.000
65.24000 22143.000
65.30000 21879.000
65.36000 22205.000
65.42000 22066.000
65.48000 21990.000
65.54000 21931.000
65.60000 22175.000
65.66000 21808.000
65.72000 21791.000
65.78000 21858.000
65.84000 21806.000
65.90000 22044.000
65.96000 21776.000
66.02000 21716.000
66.08000 21731.000
66.14000 21777.000
66.20000 21650.000
66.26000 21810.000
66.32000 21877.000
66.38000 21693.000
66.44000 21725.000
66.50000 21759.000
66.56000 21536.000
66.62000 21734.000
66.68000 21550.000
66.74000 21388.000
66.80000 21595.000
66.86000 21653.000
66.92000 21601.000
66.98000 21530.000
67.04000 21135.000
67.10000 21568.000
67.16000 21460.000
67.22000 21473.000
67.28000 21512.000
67.34000 21570.000
67.40000 21425.000
67.46000 21525.000
67.52000 21477.000
67.58000 21430.000
67.64000 21421.000
67.70000 21538.000
67.76000 21242.000
67.82000 21388.000
67.88000 21429.000
67.94000 21270.000
68.00000 21209.000
68.06000 21462.000
68.12000 21410.000
68.18000 21368.000
68.24000 21358.000
68.30000 21248.000
68.36000 21313.000
68.42000 21391.000
68.48000 21042.000
68.54000 21427.000
68.60000 21238.000
68.66000 21448.000
68.72000 21078.000
68.78000 21424.000
68.84000 21483.000
68.90000 21278.000
68.96000 21286.000
69.02000 21209.000
69.08000 21036.000
69.14000 21043.000
69.20000 21254.000
69.26000 21275.000
69.32000 21431.000
69.38000 21160.000
69.44000 21385.000
69.50000 21232.000
69.56000 21237.000
69.62000 21321.000
69.68000 21270.000
69.74000 21233.000
69.80000 21147.000
69.86000 21226.000
69.92000 21241.000
69.98000 21244.000
70.04000 21195.000
70.10000 21232.000
70.16000 21318.000
70.22000 21477.000
70.28000 20824.000
70.34000 21027.000
70.40000 21418.000
70.46000 21193.000
70.52000 21175.000
70.58000 21312.000
70.64000 21272.000
70.70000 21377.000
70.76000 21210.000
70.82000 21058.000
70.88000 21245.000
70.94000 21335.000
71.00000 21351.000
71.06000 21280.000
71.12000 21195.000
71.18000 21165.000
71.24000 21362.000
71.30000 21184.000
71.36000 21398.000
71.42000 21082.000
71.48000 21042.000
71.54000 21185.000
71.60000 21179.000
71.66000 21085.000
71.72000 21184.000
71.78000 20965.000
71.84000 21135.000
71.90000 21162.000
71.96000 21194.000
72.02000 21268.000
72.08000 20925.000
72.14000 21287.000
72.20000 21308.000
72.26000 20930.000
72.32000 21027.000
72.38000 21202.000
72.44000 20911.000
72.50000 20982.000
72.56000 21143.000
72.62000 20883.000
72.68000 21148.000
72.74000 20881.000
72.80000 20919.000
72.86000 20985.000
72.92000 20680.000
72.98000 20970.000
73.04000 20688.000
73.10000 21049.000
73.16000 20732.000
73.22000 20909.000
73.28000 21161.000
73.34000 20762.000
73.40000 21084.000
73.46000 20889.000
73.52000 20965.000
73.58000 20824.000
73.64000 20516.000
73.70000 20808.000
73.76000 20773.000
73.82000 20630.000
73.88000 20874.000
73.94000 20964.000
74.00000 20850.000
74.06000 20776.000
74.12000 20663.000
74.18000 20878.000
74.24000 20599.000
74.30000 20652.000
74.36000 20463.000
74.42000 20679.000
74.48000 20798.000
74.54000 20573.000
74.60000 20656.000
74.66000 20651.000
74.72000 20753.000
74.78000 20515.000
74.84000 20490.000
74.90000 20623.000
74.96000 20593.000
75.02000 20559.000
75.08000 20454.000
75.14000 20387.000
75.20000 20676.000
75.26000 20583.000
75.32000 20599.000
75.38000 20372.000
75.44000 20350.000
75.50000 20489.000
75.56000 20441.000
75.62000 20402.000
75.68000 20564.000
75.74000 20703.000
75.80000 20243.000
75.86000 20491.000
75.92000 20403.000
75.98000 20351.000
76.04000 20257.000
76.10000 20410.000
76.16000 20513.000
76.22000 20284.000
76.28000 20186.000
76.34000 20330.000
76.40000 20353.000
76.46000 20283.000
76.52000 20281.000
76.58000 20509.000
76.64000 20334.000
76.70000 20074.000
76.76000 20298.000
76.82000 20190.000
76.88000 20345.000
76.94000 20219.000
77.00000 20458.000
77.06000 20275.000
77.12000 20240.000
77.18000 20439.000
77.24000 20070.000
77.30000 20336.000
77.36000 20164.000
77.42000 20428.000
77.48000 20455.000
77.54000 20315.000
77.60000 20126.000
77.66000 20070.000
77.72000 20254.000
77.78000 19989.000
77.84000 20313.000
77.90000 20242.000
77.96000 20103.000
78.02000 20218.000
78.08000 20223.000
78.14000 20234.000
78.20000 20121.000
78.26000 20108.000
78.32000 20030.000
78.38000 20069.000
78.44000 20202.000
78.50000 20003.000
78.56000 20014.000
78.62000 19990.000
78.68000 20196.000
78.74000 19874.000
78.80000 20006.000
78.86000 19970.000
78.92000 20062.000
78.98000 19958.000
79.04000 19825.000
79.10000 20193.000
79.16000 20305.000
79.22000 20110.000
79.28000 20041.000
79.34000 20076.000
79.40000 20296.000
79.46000 20145.000
79.52000 19994.000
79.58000 20216.000
79.64000 19967.000
79.70000 20070.000
79.76000 19813.000
79.82000 20014.000
79.88000 20046.000
79.94000 19909.000
80.00000 19883.000
80.06000 20030.000
80.12000 20056.000
80.18000 19942.000
80.24000 20114.000
80.30000 20124.000
80.36000 19874.000
80.42000 19978.000
80.48000 20091.000
80.54000 19794.000
80.60000 19758.000
80.66000 19833.000
80.72000 19774.000
80.78000 19969.000
80.84000 20133.000
80.90000 19715.000
80.96000 19702.000
81.02000 19818.000
81.08000 19964.000
81.14000 20142.000
81.20000 19814.000
81.26000 19724.000
81.32000 19756.000
81.38000 19773.000
81.44000 19722.000
81.50000 19874.000
81.56000 19843.000
81.62000 19564.000
81.68000 19768.000
81.74000 19866.000
81.80000 19792.000
81.86000 19867.000
81.92000 19654.000
81.98000 19659.000
82.04000 19730.000
82.10000 19693.000
82.16000 19678.000
82.22000 19791.000
82.28000 19819.000
82.34000 19526.000
82.40000 19749.000
82.46000 19622.000
82.52000 19677.000
82.58000 19713.000
82.64000 19563.000
82.70000 19613.000
82.76000 19566.000
82.82000 19644.000
82.88000 19664.000
82.94000 19390.000
83.00000 19491.000
83.06000 19565.000
83.12000 19571.000
83.18000 19707.000
83.24000 19566.000
83.30000 19570.000
83.36000 19597.000
83.42000 19433.000
83.48000 19635.000
83.54000 19653.000
83.60000 19759.000
83.66000 19388.000
83.72000 19472.000
83.78000 19493.000
83.84000 19570.000
83.90000 19488.000
83.96000 19261.000
84.02000 19570.000
84.08000 19356.000
84.14000 19531.000
84.20000 19453.000
84.26000 19440.000
84.32000 19651.000
84.38000 19434.000
84.44000 19359.000
84.50000 19548.000
84.56000 19237.000
84.62000 19374.000
84.68000 19423.000
84.74000 19331.000
84.80000 19236.000
84.86000 19341.000
84.92000 19339.000
84.98000 19384.000
85.04000 19523.000
85.10000 19368.000
85.16000 19392.000
85.22000 19346.000
85.28000 19242.000
85.34000 19364.000
85.40000 19328.000
85.46000 19070.000
85.52000 19434.000
85.58000 19384.000
85.64000 19404.000
85.70000 19411.000
85.76000 19302.000
85.82000 19254.000
85.88000 19326.000
85.94000 19287.000
86.00000 19494.000
86.06000 19337.000
86.12000 19053.000
86.18000 19294.000
86.24000 19119.000
86.30000 19172.000
86.36000 19186.000
86.42000 19142.000
86.48000 19164.000
86.54000 19075.000
86.60000 19124.000
86.66000 19281.000
86.72000 19160.000
86.78000 19377.000
86.84000 19169.000
86.90000 19009.000
86.96000 19091.000
87.02000 19216.000
87.08000 19030.000
87.14000 18997.000
87.20000 19333.000
87.26000 19296.000
87.32000 19212.000
87.38000 19049.000
87.44000 19377.000
87.50000 19038.000
87.56000 19169.000
87.62000 19095.000
87.68000 19077.000
87.74000 19268.000
87.80000 19020.000
87.86000 18978.000
87.92000 19047.000
87.98000 19150.000
88.04000 19007.000
88.10000 19061.000
88.16000 19063.000
88.22000 18963.000
88.28000 19010.000
88.34000 18911.000
88.40000 19030.000
88.46000 18889.000
88.52000 18725.000
88.58000 18903.000
88.64000 18875.000
88.70000 19064.000
88.76000 18727.000
88.82000 18937.000
88.88000 18944.000
88.94000 18929.000
89.00000 19087.000
89.06000 19225.000
89.12000 18887.000
89.18000 18927.000
89.24000 19041.000
89.30000 18840.000
89.36000 18839.000
89.42000 18913.000
89.48000 18841.000
89.54000 18753.000
89.60000 18872.000
89.66000 18933.000
89.72000 18771.000
89.78000 18882.000
89.84000 18935.000
89.90000 19123.000
89.96000 18868.000
89.98000 18854.000