File: fig_2_xrd_bet/XRD/Ni90Fe10_TiO2_BB_Dtex.xy
10.00000 23349.000
10.05000 23382.000
10.10000 23211.000
10.15000 23315.000
10.20000 23250.000
10.25000 23288.000
10.30000 23098.000
10.35000 23153.000
10.40000 22734.000
10.45000 22602.000
10.50000 22540.000
10.55000 22616.000
10.60000 22553.000
10.65000 22365.000
10.70000 22275.000
10.75000 22211.000
10.80000 22122.000
10.85000 22139.000
10.90000 21811.000
10.95000 21726.000
11.00000 21541.000
11.05000 21515.000
11.10000 21226.000
11.15000 21023.000
11.20000 21208.000
11.25000 21016.000
11.30000 20878.000
11.35000 21002.000
11.40000 20886.000
11.45000 20532.000
11.50000 20589.000
11.55000 20488.000
11.60000 20340.000
11.65000 20246.000
11.70000 20036.000
11.75000 20044.000
11.80000 20316.000
11.85000 20009.000
11.90000 19891.000
11.95000 19943.000
12.00000 19807.000
12.05000 19626.000
12.10000 19401.000
12.15000 19597.000
12.20000 19534.000
12.25000 19541.000
12.30000 19222.000
12.35000 19406.000
12.40000 19422.000
12.45000 19122.000
12.50000 18946.000
12.55000 18962.000
12.60000 18905.000
12.65000 19054.000
12.70000 18728.000
12.75000 18847.000
12.80000 18855.000
12.85000 18712.000
12.90000 18746.000
12.95000 18969.000
13.00000 18363.000
13.05000 18360.000
13.10000 18652.000
13.15000 18532.000
13.20000 18504.000
13.25000 18250.000
13.30000 18135.000
13.35000 18106.000
13.40000 18022.000
13.45000 18040.000
13.50000 17795.000
13.55000 18194.000
13.60000 17805.000
13.65000 17878.000
13.70000 17937.000
13.75000 18149.000
13.80000 17852.000
13.85000 17914.000
13.90000 17722.000
13.95000 17818.000
14.00000 17560.000
14.05000 17646.000
14.10000 17707.000
14.15000 17514.000
14.20000 17582.000
14.25000 17376.000
14.30000 17622.000
14.35000 17459.000
14.40000 17513.000
14.45000 17601.000
14.50000 17377.000
14.55000 17325.000
14.60000 17327.000
14.65000 17289.000
14.70000 17297.000
14.75000 17311.000
14.80000 17183.000
14.85000 16944.000
14.90000 17239.000
14.95000 17233.000
15.00000 17163.000
15.05000 17044.000
15.10000 16894.000
15.15000 16846.000
15.20000 16939.000
15.25000 17005.000
15.30000 16878.000
15.35000 16679.000
15.40000 16930.000
15.45000 16792.000
15.50000 16683.000
15.55000 16780.000
15.60000 16593.000
15.65000 16735.000
15.70000 16623.000
15.75000 16753.000
15.80000 16627.000
15.85000 16600.000
15.90000 16753.000
15.95000 16750.000
16.00000 16608.000
16.05000 16555.000
16.10000 16496.000
16.15000 16409.000
16.20000 16581.000
16.25000 16227.000
16.30000 16392.000
16.35000 16483.000
16.40000 16418.000
16.45000 16207.000
16.50000 16588.000
16.55000 16482.000
16.60000 16512.000
16.65000 16459.000
16.70000 16548.000
16.75000 16305.000
16.80000 16546.000
16.85000 16109.000
16.90000 16425.000
16.95000 16483.000
17.00000 16306.000
17.05000 16531.000
17.10000 16604.000
17.15000 16441.000
17.20000 16295.000
17.25000 16306.000
17.30000 16401.000
17.35000 16358.000
17.40000 16257.000
17.45000 16451.000
17.50000 16510.000
17.55000 16368.000
17.60000 16216.000
17.65000 16214.000
17.70000 16214.000
17.75000 16248.000
17.80000 16188.000
17.85000 16054.000
17.90000 16183.000
17.95000 16294.000
18.00000 16244.000
18.05000 16302.000
18.10000 16391.000
18.15000 16242.000
18.20000 16338.000
18.25000 16305.000
18.30000 16207.000
18.35000 16256.000
18.40000 16290.000
18.45000 16409.000
18.50000 16278.000
18.55000 16445.000
18.60000 16102.000
18.65000 16292.000
18.70000 16319.000
18.75000 16528.000
18.80000 16335.000
18.85000 16096.000
18.90000 16439.000
18.95000 16170.000
19.00000 16138.000
19.05000 16376.000
19.10000 16375.000
19.15000 16417.000
19.20000 16190.000
19.25000 16450.000
19.30000 16213.000
19.35000 16377.000
19.40000 16225.000
19.45000 16369.000
19.50000 16315.000
19.55000 16316.000
19.60000 16372.000
19.65000 16404.000
19.70000 16484.000
19.75000 16511.000
19.80000 16382.000
19.85000 16420.000
19.90000 16326.000
19.95000 16279.000
20.00000 16416.000
20.05000 16252.000
20.10000 16431.000
20.15000 16239.000
20.20000 16407.000
20.25000 16549.000
20.30000 16355.000
20.35000 16355.000
20.40000 16234.000
20.45000 16481.000
20.50000 16391.000
20.55000 16327.000
20.60000 16357.000
20.65000 16186.000
20.70000 16479.000
20.75000 16170.000
20.80000 16356.000
20.85000 16197.000
20.90000 16390.000
20.95000 16278.000
21.00000 16244.000
21.05000 16160.000
21.10000 16264.000
21.15000 16284.000
21.20000 16151.000
21.25000 16176.000
21.30000 16203.000
21.35000 16262.000
21.40000 16318.000
21.45000 16427.000
21.50000 16021.000
21.55000 16264.000
21.60000 16184.000
21.65000 16123.000
21.70000 16109.000
21.75000 16177.000
21.80000 16056.000
21.85000 16244.000
21.90000 15972.000
21.95000 16165.000
22.00000 16084.000
22.05000 16028.000
22.10000 16227.000
22.15000 15896.000
22.20000 16302.000
22.25000 16335.000
22.30000 16160.000
22.35000 15996.000
22.40000 15953.000
22.45000 16166.000
22.50000 16085.000
22.55000 16224.000
22.60000 16230.000
22.65000 16035.000
22.70000 16151.000
22.75000 16360.000
22.80000 16022.000
22.85000 16150.000
22.90000 16175.000
22.95000 16055.000
23.00000 15958.000
23.05000 16148.000
23.10000 16268.000
23.15000 16155.000
23.20000 15956.000
23.25000 16295.000
23.30000 16101.000
23.35000 16087.000
23.40000 15968.000
23.45000 15967.000
23.50000 16050.000
23.55000 16208.000
23.60000 16065.000
23.65000 15951.000
23.70000 16158.000
23.75000 16005.000
23.80000 15973.000
23.85000 15809.000
23.90000 15795.000
23.95000 16157.000
24.00000 16074.000
24.05000 16025.000
24.10000 16133.000
24.15000 16144.000
24.20000 15909.000
24.25000 16116.000
24.30000 15942.000
24.35000 16088.000
24.40000 15905.000
24.45000 15950.000
24.50000 16093.000
24.55000 16078.000
24.60000 16084.000
24.65000 16145.000
24.70000 15950.000
24.75000 16098.000
24.80000 16204.000
24.85000 16020.000
24.90000 15900.000
24.95000 16178.000
25.00000 16103.000
25.05000 15867.000
25.10000 16019.000
25.15000 16158.000
25.20000 16088.000
25.25000 16176.000
25.30000 16159.000
25.35000 16160.000
25.40000 16026.000
25.45000 16214.000
25.50000 15981.000
25.55000 16003.000
25.60000 16040.000
25.65000 16052.000
25.70000 16007.000
25.75000 16090.000
25.80000 16320.000
25.85000 15971.000
25.90000 16071.000
25.95000 16229.000
26.00000 15955.000
26.05000 16120.000
26.10000 15957.000
26.15000 16134.000
26.20000 16198.000
26.25000 16131.000
26.30000 16040.000
26.35000 16258.000
26.40000 16121.000
26.45000 16285.000
26.50000 16134.000
26.55000 16195.000
26.60000 16167.000
26.65000 16576.000
26.70000 16300.000
26.75000 16437.000
26.80000 16349.000
26.85000 16700.000
26.90000 16859.000
26.95000 17018.000
27.00000 17144.000
27.05000 17445.000
27.10000 17571.000
27.15000 17960.000
27.20000 18551.000
27.25000 18919.000
27.30000 19377.000
27.35000 19936.000
27.40000 20197.000
27.45000 20047.000
27.50000 19590.000
27.55000 19176.000
27.60000 18337.000
27.65000 18053.000
27.70000 17618.000
27.75000 17233.000
27.80000 17018.000
27.85000 16934.000
27.90000 16754.000
27.95000 16505.000
28.00000 16460.000
28.05000 16495.000
28.10000 16492.000
28.15000 16371.000
28.20000 16291.000
28.25000 16394.000
28.30000 16599.000
28.35000 16201.000
28.40000 16206.000
28.45000 16287.000
28.50000 16294.000
28.55000 16313.000
28.60000 16106.000
28.65000 16129.000
28.70000 16416.000
28.75000 16271.000
28.80000 16208.000
28.85000 16201.000
28.90000 16060.000
28.95000 16108.000
29.00000 16082.000
29.05000 16084.000
29.10000 16254.000
29.15000 16003.000
29.20000 15997.000
29.25000 15888.000
29.30000 16065.000
29.35000 15898.000
29.40000 15946.000
29.45000 16344.000
29.50000 15781.000
29.55000 15932.000
29.60000 15829.000
29.65000 15950.000
29.70000 16103.000
29.75000 15930.000
29.80000 16133.000
29.85000 16142.000
29.90000 16005.000
29.95000 16140.000
30.00000 16279.000
30.05000 15724.000
30.10000 16052.000
30.15000 16018.000
30.20000 15804.000
30.25000 16283.000
30.30000 16218.000
30.35000 15943.000
30.40000 15878.000
30.45000 16076.000
30.50000 15970.000
30.55000 15709.000
30.60000 15836.000
30.65000 16057.000
30.70000 16020.000
30.75000 15960.000
30.80000 15889.000
30.85000 16049.000
30.90000 15811.000
30.95000 15905.000
31.00000 15938.000
31.05000 16189.000
31.10000 16084.000
31.15000 16011.000
31.20000 16027.000
31.25000 16144.000
31.30000 16015.000
31.35000 16018.000
31.40000 16106.000
31.45000 16089.000
31.50000 15907.000
31.55000 15900.000
31.60000 16073.000
31.65000 16119.000
31.70000 16058.000
31.75000 16173.000
31.80000 16051.000
31.85000 15911.000
31.90000 16135.000
31.95000 16354.000
32.00000 16097.000
32.05000 16449.000
32.10000 16197.000
32.15000 16228.000
32.20000 16282.000
32.25000 16254.000
32.30000 16546.000
32.35000 16519.000
32.40000 16549.000
32.45000 16565.000
32.50000 16777.000
32.55000 16799.000
32.60000 16725.000
32.65000 16900.000
32.70000 17021.000
32.75000 16989.000
32.80000 17228.000
32.85000 17358.000
32.90000 17545.000
32.95000 17592.000
33.00000 17834.000
33.05000 17715.000
33.10000 17944.000
33.15000 18157.000
33.20000 18397.000
33.25000 18722.000
33.30000 18423.000
33.35000 18650.000
33.40000 19029.000
33.45000 19194.000
33.50000 19433.000
33.55000 19367.000
33.60000 19674.000
33.65000 19922.000
33.70000 19983.000
33.75000 20034.000
33.80000 20333.000
33.85000 20200.000
33.90000 20477.000
33.95000 20685.000
34.00000 20716.000
34.05000 20589.000
34.10000 20779.000
34.15000 20875.000
34.20000 21156.000
34.25000 21323.000
34.30000 21194.000
34.35000 21137.000
34.40000 21034.000
34.45000 21102.000
34.50000 21235.000
34.55000 21395.000
34.60000 21114.000
34.65000 20912.000
34.70000 21004.000
34.75000 20838.000
34.80000 20787.000
34.85000 21112.000
34.90000 20739.000
34.95000 20865.000
35.00000 20886.000
35.05000 20731.000
35.10000 20750.000
35.15000 20253.000
35.20000 20631.000
35.25000 20506.000
35.30000 20411.000
35.35000 20495.000
35.40000 20613.000
35.45000 20166.000
35.50000 20361.000
35.55000 20457.000
35.60000 20197.000
35.65000 20019.000
35.70000 20401.000
35.75000 20349.000
35.80000 20417.000
35.85000 20633.000
35.90000 20695.000
35.95000 20949.000
36.00000 21403.000
36.05000 21544.000
36.10000 21756.000
36.15000 22118.000
36.20000 22051.000
36.25000 21824.000
36.30000 21524.000
36.35000 21123.000
36.40000 20453.000
36.45000 20342.000
36.50000 19978.000
36.55000 20007.000
36.60000 19769.000
36.65000 19453.000
36.70000 19301.000
36.75000 19500.000
36.80000 19638.000
36.85000 19599.000
36.90000 19161.000
36.95000 19311.000
37.00000 19427.000
37.05000 19199.000
37.10000 19271.000
37.15000 19374.000
37.20000 19229.000
37.25000 19124.000
37.30000 19213.000
37.35000 19143.000
37.40000 19099.000
37.45000 19103.000
37.50000 19080.000
37.55000 18874.000
37.60000 19088.000
37.65000 19175.000
37.70000 18982.000
37.75000 18986.000
37.80000 18944.000
37.85000 18899.000
37.90000 18945.000
37.95000 18866.000
38.00000 18712.000
38.05000 18834.000
38.10000 18984.000
38.15000 18724.000
38.20000 18733.000
38.25000 18587.000
38.30000 18695.000
38.35000 18599.000
38.40000 18320.000
38.45000 18602.000
38.50000 18605.000
38.55000 18712.000
38.60000 18667.000
38.65000 18642.000
38.70000 18474.000
38.75000 18414.000
38.80000 18799.000
38.85000 18746.000
38.90000 18558.000
38.95000 18437.000
39.00000 18580.000
39.05000 18508.000
39.10000 18456.000
39.15000 18564.000
39.20000 18456.000
39.25000 18420.000
39.30000 18283.000
39.35000 18201.000
39.40000 18538.000
39.45000 18265.000
39.50000 18276.000
39.55000 18364.000
39.60000 18454.000
39.65000 18282.000
39.70000 18179.000
39.75000 18441.000
39.80000 18199.000
39.85000 18043.000
39.90000 17982.000
39.95000 18211.000
40.00000 18044.000
40.05000 17978.000
40.10000 17922.000
40.15000 18046.000
40.20000 18218.000
40.25000 18053.000
40.30000 17913.000
40.35000 17964.000
40.40000 18136.000
40.45000 18191.000
40.50000 18169.000
40.55000 18036.000
40.60000 18130.000
40.65000 18004.000
40.70000 17912.000
40.75000 18002.000
40.80000 17992.000
40.85000 18023.000
40.90000 17857.000
40.95000 18288.000
41.00000 18484.000
41.05000 18316.000
41.10000 18453.000
41.15000 18741.000
41.20000 18923.000
41.25000 19066.000
41.30000 19011.000
41.35000 19030.000
41.40000 18996.000
41.45000 18535.000
41.50000 18360.000
41.55000 18429.000
41.60000 18133.000
41.65000 17978.000
41.70000 17917.000
41.75000 17911.000
41.80000 17715.000
41.85000 17761.000
41.90000 17668.000
41.95000 17673.000
42.00000 17660.000
42.05000 17655.000
42.10000 17515.000
42.15000 17466.000
42.20000 17607.000
42.25000 17554.000
42.30000 17435.000
42.35000 17360.000
42.40000 17449.000
42.45000 17312.000
42.50000 17455.000
42.55000 17259.000
42.60000 17455.000
42.65000 17393.000
42.70000 17323.000
42.75000 17471.000
42.80000 17362.000
42.85000 17212.000
42.90000 17322.000
42.95000 17311.000
43.00000 16983.000
43.05000 17240.000
43.10000 17406.000
43.15000 17240.000
43.20000 17318.000
43.25000 17419.000
43.30000 17408.000
43.35000 17337.000
43.40000 17215.000
43.45000 17173.000
43.50000 17231.000
43.55000 17256.000
43.60000 17223.000
43.65000 17255.000
43.70000 17382.000
43.75000 17260.000
43.80000 17460.000
43.85000 17533.000
43.90000 17638.000
43.95000 17563.000
44.00000 17349.000
44.05000 17347.000
44.10000 17439.000
44.15000 17413.000
44.20000 17398.000
44.25000 17229.000
44.30000 17155.000
44.35000 17157.000
44.40000 17178.000
44.45000 17042.000
44.50000 17089.000
44.55000 17126.000
44.60000 17230.000
44.65000 17054.000
44.70000 16936.000
44.75000 17141.000
44.80000 16952.000
44.85000 17107.000
44.90000 16642.000
44.95000 17068.000
45.00000 17039.000
45.05000 16927.000
45.10000 17012.000
45.15000 16888.000
45.20000 16804.000
45.25000 16822.000
45.30000 16673.000
45.35000 16894.000
45.40000 16667.000
45.45000 16778.000
45.50000 16642.000
45.55000 16740.000
45.60000 16774.000
45.65000 16773.000
45.70000 16659.000
45.75000 16750.000
45.80000 16624.000
45.85000 16679.000
45.90000 16658.000
45.95000 16624.000
46.00000 16676.000
46.05000 16763.000
46.10000 16730.000
46.15000 16417.000
46.20000 16562.000
46.25000 16785.000
46.30000 16442.000
46.35000 16283.000
46.40000 16627.000
46.45000 16410.000
46.50000 16524.000
46.55000 16719.000
46.60000 16498.000
46.65000 16420.000
46.70000 16564.000
46.75000 16320.000
46.80000 16326.000
46.85000 16467.000
46.90000 16635.000
46.95000 16446.000
47.00000 16546.000
47.05000 16289.000
47.10000 16601.000
47.15000 16462.000
47.20000 16494.000
47.25000 16464.000
47.30000 16140.000
47.35000 16653.000
47.40000 16240.000
47.45000 16213.000
47.50000 16335.000
47.55000 16320.000
47.60000 16426.000
47.65000 16181.000
47.70000 16315.000
47.75000 16163.000
47.80000 16201.000
47.85000 16178.000
47.90000 16387.000
47.95000 16301.000
48.00000 16473.000
48.05000 16138.000
48.10000 16082.000
48.15000 16246.000
48.20000 16144.000
48.25000 15946.000
48.30000 16020.000
48.35000 16160.000
48.40000 16132.000
48.45000 16237.000
48.50000 15921.000
48.55000 16216.000
48.60000 16027.000
48.65000 16069.000
48.70000 15997.000
48.75000 15801.000
48.80000 16125.000
48.85000 16003.000
48.90000 15777.000
48.95000 15959.000
49.00000 15891.000
49.05000 16069.000
49.10000 15876.000
49.15000 15899.000
49.20000 15982.000
49.25000 15808.000
49.30000 15897.000
49.35000 15761.000
49.40000 15846.000
49.45000 15884.000
49.50000 16101.000
49.55000 15759.000
49.60000 15850.000
49.65000 15588.000
49.70000 15992.000
49.75000 15777.000
49.80000 15822.000
49.85000 15896.000
49.90000 15843.000
49.95000 15629.000
50.00000 15566.000
50.05000 15596.000
50.10000 15744.000
50.15000 15574.000
50.20000 15659.000
50.25000 15658.000
50.30000 15564.000
50.35000 15480.000
50.40000 15589.000
50.45000 15614.000
50.50000 15430.000
50.55000 15653.000
50.60000 15631.000
50.65000 15483.000
50.70000 15463.000
50.75000 15631.000
50.80000 15603.000
50.85000 15831.000
50.90000 15425.000
50.95000 15518.000
51.00000 15506.000
51.05000 15342.000
51.10000 15409.000
51.15000 15507.000
51.20000 15509.000
51.25000 15630.000
51.30000 15386.000
51.35000 15404.000
51.40000 15257.000
51.45000 15381.000
51.50000 15425.000
51.55000 15542.000
51.60000 15245.000
51.65000 15530.000
51.70000 15424.000
51.75000 15435.000
51.80000 15161.000
51.85000 15208.000
51.90000 15099.000
51.95000 15563.000
52.00000 15402.000
52.05000 15429.000
52.10000 15287.000
52.15000 15313.000
52.20000 15187.000
52.25000 15360.000
52.30000 15228.000
52.35000 15149.000
52.40000 15278.000
52.45000 15250.000
52.50000 15295.000
52.55000 15273.000
52.60000 15248.000
52.65000 15254.000
52.70000 15378.000
52.75000 15364.000
52.80000 15182.000
52.85000 15222.000
52.90000 15261.000
52.95000 15205.000
53.00000 15171.000
53.05000 15104.000
53.10000 15293.000
53.15000 15278.000
53.20000 15114.000
53.25000 15088.000
53.30000 15109.000
53.35000 15100.000
53.40000 15378.000
53.45000 15180.000
53.50000 15283.000
53.55000 15307.000
53.60000 15369.000
53.65000 15465.000
53.70000 15325.000
53.75000 15469.000
53.80000 15588.000
53.85000 15508.000
53.90000 15582.000
53.95000 15721.000
54.00000 16065.000
54.05000 15940.000
54.10000 16326.000
54.15000 16381.000
54.20000 16896.000
54.25000 17077.000
54.30000 16927.000
54.35000 17365.000
54.40000 17189.000
54.45000 17089.000
54.50000 16931.000
54.55000 16564.000
54.60000 16398.000
54.65000 16074.000
54.70000 15989.000
54.75000 15819.000
54.80000 15648.000
54.85000 15697.000
54.90000 15372.000
54.95000 15360.000
55.00000 15319.000
55.05000 15129.000
55.10000 15187.000
55.15000 15276.000
55.20000 15226.000
55.25000 14834.000
55.30000 14993.000
55.35000 14842.000
55.40000 15157.000
55.45000 15072.000
55.50000 15082.000
55.55000 14951.000
55.60000 15180.000
55.65000 15081.000
55.70000 14936.000
55.75000 14986.000
55.80000 14942.000
55.85000 15098.000
55.90000 14684.000
55.95000 14861.000
56.00000 15022.000
56.05000 15174.000
56.10000 15037.000
56.15000 15083.000
56.20000 15235.000
56.25000 15159.000
56.30000 15310.000
56.35000 15447.000
56.40000 15363.000
56.45000 15483.000
56.50000 15436.000
56.55000 15344.000
56.60000 15316.000
56.65000 15422.000
56.70000 15322.000
56.75000 15326.000
56.80000 15317.000
56.85000 15123.000
56.90000 15205.000
56.95000 15360.000
57.00000 14980.000
57.05000 14962.000
57.10000 15093.000
57.15000 14926.000
57.20000 14824.000
57.25000 14979.000
57.30000 14775.000
57.35000 14829.000
57.40000 14945.000
57.45000 15063.000
57.50000 14826.000
57.55000 14857.000
57.60000 14880.000
57.65000 14933.000
57.70000 14703.000
57.75000 14999.000
57.80000 14983.000
57.85000 14998.000
57.90000 14906.000
57.95000 14876.000
58.00000 15008.000
58.05000 14868.000
58.10000 15079.000
58.15000 14864.000
58.20000 14991.000
58.25000 14948.000
58.30000 14907.000
58.35000 14844.000
58.40000 15221.000
58.45000 15138.000
58.50000 15208.000
58.55000 15131.000
58.60000 15139.000
58.65000 15240.000
58.70000 15321.000
58.75000 15228.000
58.80000 15569.000
58.85000 15296.000
58.90000 15323.000
58.95000 15382.000
59.00000 15598.000
59.05000 15521.000
59.10000 15607.000
59.15000 15732.000
59.20000 15763.000
59.25000 15939.000
59.30000 15983.000
59.35000 15995.000
59.40000 16065.000
59.45000 16054.000
59.50000 15847.000
59.55000 16010.000
59.60000 16224.000
59.65000 16251.000
59.70000 16570.000
59.75000 16423.000
59.80000 16353.000
59.85000 16702.000
59.90000 16695.000
59.95000 16817.000
60.00000 16757.000
60.05000 16823.000
60.10000 16669.000
60.15000 16808.000
60.20000 16812.000
60.25000 16951.000
60.30000 17118.000
60.35000 16976.000
60.40000 17020.000
60.45000 17019.000
60.50000 17391.000
60.55000 17169.000
60.60000 17107.000
60.65000 17190.000
60.70000 17279.000
60.75000 17004.000
60.80000 17207.000
60.85000 17235.000
60.90000 16994.000
60.95000 16891.000
61.00000 17125.000
61.05000 16945.000
61.10000 16862.000
61.15000 16898.000
61.20000 16691.000
61.25000 16496.000
61.30000 16577.000
61.35000 16441.000
61.40000 16492.000
61.45000 16615.000
61.50000 16376.000
61.55000 16322.000
61.60000 16245.000
61.65000 16175.000
61.70000 16154.000
61.75000 16223.000
61.80000 16038.000
61.85000 16048.000
61.90000 15621.000
61.95000 15909.000
62.00000 15931.000
62.05000 15643.000
62.10000 15658.000
62.15000 15643.000
62.20000 15775.000
62.25000 15593.000
62.30000 15550.000
62.35000 15379.000
62.40000 15346.000
62.45000 15459.000
62.50000 15384.000
62.55000 15206.000
62.60000 15473.000
62.65000 15277.000
62.70000 15361.000
62.75000 15212.000
62.80000 15207.000
62.85000 15320.000
62.90000 15279.000
62.95000 15564.000
63.00000 15216.000
63.05000 15526.000
63.10000 15330.000
63.15000 15432.000
63.20000 15008.000
63.25000 15033.000
63.30000 14900.000
63.35000 14778.000
63.40000 15100.000
63.45000 15036.000
63.50000 14851.000
63.55000 14885.000
63.60000 14756.000
63.65000 14769.000
63.70000 14850.000
63.75000 14636.000
63.80000 14744.000
63.85000 14751.000
63.90000 14658.000
63.95000 14765.000
64.00000 14480.000
64.05000 14606.000
64.10000 14569.000
64.15000 14574.000
64.20000 14562.000
64.25000 14528.000
64.30000 14460.000
64.35000 14593.000
64.40000 14397.000
64.45000 14545.000
64.50000 14456.000
64.55000 14325.000
64.60000 14322.000
64.65000 14419.000
64.70000 14239.000
64.75000 14287.000
64.80000 14208.000
64.85000 14397.000
64.90000 14054.000
64.95000 14167.000
65.00000 14058.000
65.05000 14099.000
65.10000 14132.000
65.15000 14118.000
65.20000 14218.000
65.25000 14171.000
65.30000 14118.000
65.35000 13969.000
65.40000 13833.000
65.45000 13972.000
65.50000 14023.000
65.55000 14017.000
65.60000 14073.000
65.65000 13860.000
65.70000 13971.000
65.75000 14084.000
65.80000 13910.000
65.85000 13851.000
65.90000 13895.000
65.95000 13687.000
66.00000 14085.000
66.05000 13820.000
66.10000 13921.000
66.15000 13992.000
66.20000 13998.000
66.25000 13642.000
66.30000 13908.000
66.35000 13791.000
66.40000 13785.000
66.45000 13742.000
66.50000 13904.000
66.55000 13836.000
66.60000 13844.000
66.65000 13866.000
66.70000 13883.000
66.75000 13648.000
66.80000 13688.000
66.85000 13612.000
66.90000 13685.000
66.95000 13787.000
67.00000 13629.000
67.05000 13884.000
67.10000 13632.000
67.15000 13531.000
67.20000 13736.000
67.25000 13668.000
67.30000 13628.000
67.35000 13672.000
67.40000 13530.000
67.45000 13589.000
67.50000 13611.000
67.55000 13582.000
67.60000 13657.000
67.65000 13595.000
67.70000 13704.000
67.75000 13573.000
67.80000 13590.000
67.85000 13525.000
67.90000 13517.000
67.95000 13533.000
68.00000 13574.000
68.05000 13655.000
68.10000 13427.000
68.15000 13687.000
68.20000 13545.000
68.25000 13734.000
68.30000 13358.000
68.35000 13642.000
68.40000 13717.000
68.45000 13595.000
68.50000 13617.000
68.55000 13627.000
68.60000 13750.000
68.65000 13852.000
68.70000 13793.000
68.75000 13774.000
68.80000 13684.000
68.85000 13783.000
68.90000 14014.000
68.95000 14143.000
69.00000 14044.000
69.05000 13961.000
69.10000 14141.000
69.15000 13848.000
69.20000 13945.000
69.25000 13861.000
69.30000 13824.000
69.35000 13764.000
69.40000 13809.000
69.45000 13635.000
69.50000 13746.000
69.55000 13795.000
69.60000 13868.000
69.65000 13645.000
69.70000 13712.000
69.75000 13694.000
69.80000 13766.000
69.85000 13815.000
69.90000 13931.000
69.95000 13997.000
70.00000 13630.000
70.05000 13984.000
70.10000 13909.000
70.15000 13903.000
70.20000 13848.000
70.25000 13671.000
70.30000 13872.000
70.35000 13795.000
70.40000 13639.000
70.45000 13682.000
70.50000 13602.000
70.55000 13721.000
70.60000 13659.000
70.65000 13567.000
70.70000 13513.000
70.75000 13693.000
70.80000 13756.000
70.85000 13589.000
70.90000 13837.000
70.95000 13551.000
71.00000 13650.000
71.05000 13532.000
71.10000 13619.000
71.15000 13597.000
71.20000 13703.000
71.25000 13731.000
71.30000 13506.000
71.35000 13753.000
71.40000 13605.000
71.45000 13848.000
71.50000 13641.000
71.55000 13705.000
71.60000 13484.000
71.65000 13628.000
71.70000 13452.000
71.75000 13662.000
71.80000 13553.000
71.85000 13683.000
71.90000 13669.000
71.95000 13578.000
72.00000 13692.000
72.05000 13628.000
72.10000 13395.000
72.15000 13453.000
72.20000 13453.000
72.25000 13495.000
72.30000 13573.000
72.35000 13370.000
72.40000 13377.000
72.45000 13494.000
72.50000 13547.000
72.55000 13439.000
72.60000 13338.000
72.65000 13259.000
72.70000 13529.000
72.75000 13313.000
72.80000 13349.000
72.85000 13340.000
72.90000 13307.000
72.95000 13345.000
73.00000 13238.000
73.05000 13429.000
73.10000 13374.000
73.15000 13281.000
73.20000 13625.000
73.25000 13393.000
73.30000 13405.000
73.35000 13190.000
73.40000 13406.000
73.45000 12952.000
73.50000 13290.000
73.55000 13132.000
73.60000 13349.000
73.65000 13145.000
73.70000 13226.000
73.75000 13232.000
73.80000 13183.000
73.85000 13158.000
73.90000 13130.000
73.95000 13222.000
74.00000 13065.000
74.05000 12931.000
74.10000 13006.000
74.15000 13090.000
74.20000 13153.000
74.25000 13180.000
74.30000 13044.000
74.35000 13078.000
74.40000 13087.000
74.45000 13058.000
74.50000 13078.000
74.55000 13143.000
74.60000 13092.000
74.65000 13111.000
74.70000 13054.000
74.75000 13086.000
74.80000 13009.000
74.85000 12929.000
74.90000 13195.000
74.95000 13043.000
75.00000 13114.000
75.05000 13151.000
75.10000 12846.000
75.15000 13016.000
75.20000 12965.000
75.25000 13156.000
75.30000 12936.000
75.35000 12996.000
75.40000 12921.000
75.45000 13049.000
75.50000 12987.000
75.55000 12890.000
75.60000 12871.000
75.65000 13008.000
75.70000 12924.000
75.75000 12811.000
75.80000 12850.000
75.85000 12967.000
75.90000 12950.000
75.95000 12867.000
76.00000 12943.000
76.05000 12998.000
76.10000 13013.000
76.15000 12799.000
76.20000 12846.000
76.25000 12737.000
76.30000 12966.000
76.35000 13007.000
76.40000 12876.000
76.45000 12821.000
76.50000 12937.000
76.55000 12978.000
76.60000 12861.000
76.65000 12875.000
76.70000 12853.000
76.75000 12800.000
76.80000 12889.000
76.85000 12827.000
76.90000 13147.000
76.95000 12951.000
77.00000 12704.000
77.05000 12957.000
77.10000 12848.000
77.15000 12802.000
77.20000 12653.000
77.25000 12775.000
77.30000 12665.000
77.35000 12604.000
77.40000 12725.000
77.45000 12661.000
77.50000 12716.000
77.55000 12762.000
77.60000 12608.000
77.65000 12629.000
77.70000 12763.000
77.75000 12631.000
77.80000 12699.000
77.85000 12659.000
77.90000 12763.000
77.95000 12642.000
78.00000 12667.000
78.05000 12786.000
78.10000 12597.000
78.15000 12554.000
78.20000 12667.000
78.25000 12686.000
78.30000 12555.000
78.35000 12586.000
78.40000 12576.000
78.45000 12571.000
78.50000 12680.000
78.55000 12664.000
78.60000 12605.000
78.65000 12715.000
78.70000 12683.000
78.75000 12584.000
78.80000 12518.000
78.85000 12662.000
78.90000 12637.000
78.95000 12611.000
79.00000 12577.000
79.05000 12388.000
79.10000 12463.000
79.15000 12557.000
79.20000 12392.000
79.25000 12388.000
79.30000 12620.000
79.35000 12464.000
79.40000 12536.000
79.45000 12464.000
79.50000 12579.000
79.55000 12504.000
79.60000 12398.000
79.65000 12414.000
79.70000 12457.000
79.75000 12447.000
79.80000 12548.000
79.85000 12369.000
79.90000 12602.000
79.95000 12533.000
79.99000 12598.000