File: fig_2_xrd_bet/XRD/Ni90Fe10_CeO2_BB_Dtex.xy
10.00000 23223.000
10.05000 23306.000
10.10000 23106.000
10.15000 22954.000
10.20000 22935.000
10.25000 22825.000
10.30000 22666.000
10.35000 22535.000
10.40000 22625.000
10.45000 22552.000
10.50000 22287.000
10.55000 22426.000
10.60000 22225.000
10.65000 22073.000
10.70000 22026.000
10.75000 21971.000
10.80000 21819.000
10.85000 21746.000
10.90000 21541.000
10.95000 21335.000
11.00000 21441.000
11.05000 21175.000
11.10000 21041.000
11.15000 21161.000
11.20000 21192.000
11.25000 20832.000
11.30000 20895.000
11.35000 20684.000
11.40000 20747.000
11.45000 20538.000
11.50000 20327.000
11.55000 20413.000
11.60000 20376.000
11.65000 20288.000
11.70000 20047.000
11.75000 20237.000
11.80000 19877.000
11.85000 19924.000
11.90000 19622.000
11.95000 20008.000
12.00000 19562.000
12.05000 19337.000
12.10000 19465.000
12.15000 19248.000
12.20000 19218.000
12.25000 19288.000
12.30000 19295.000
12.35000 19093.000
12.40000 18901.000
12.45000 18822.000
12.50000 19003.000
12.55000 18623.000
12.60000 18674.000
12.65000 18334.000
12.70000 18355.000
12.75000 18413.000
12.80000 18416.000
12.85000 18393.000
12.90000 18445.000
12.95000 18327.000
13.00000 18182.000
13.05000 18247.000
13.10000 18062.000
13.15000 18034.000
13.20000 18056.000
13.25000 17979.000
13.30000 17854.000
13.35000 17948.000
13.40000 17669.000
13.45000 17828.000
13.50000 17678.000
13.55000 17519.000
13.60000 17740.000
13.65000 17344.000
13.70000 17472.000
13.75000 17457.000
13.80000 17050.000
13.85000 17283.000
13.90000 17130.000
13.95000 17225.000
14.00000 17150.000
14.05000 16909.000
14.10000 16882.000
14.15000 16748.000
14.20000 16759.000
14.25000 16880.000
14.30000 16832.000
14.35000 17061.000
14.40000 17140.000
14.45000 16925.000
14.50000 16501.000
14.55000 16648.000
14.60000 16750.000
14.65000 16434.000
14.70000 16486.000
14.75000 16367.000
14.80000 16542.000
14.85000 16336.000
14.90000 16339.000
14.95000 16407.000
15.00000 16176.000
15.05000 16309.000
15.10000 16063.000
15.15000 16052.000
15.20000 16083.000
15.25000 16396.000
15.30000 16227.000
15.35000 15932.000
15.40000 16123.000
15.45000 15864.000
15.50000 15992.000
15.55000 15997.000
15.60000 15916.000
15.65000 16022.000
15.70000 15926.000
15.75000 15886.000
15.80000 15668.000
15.85000 15601.000
15.90000 15819.000
15.95000 15673.000
16.00000 15789.000
16.05000 15614.000
16.10000 15752.000
16.15000 15721.000
16.20000 15634.000
16.25000 15415.000
16.30000 15524.000
16.35000 15732.000
16.40000 15317.000
16.45000 15289.000
16.50000 15348.000
16.55000 15414.000
16.60000 15469.000
16.65000 15502.000
16.70000 15294.000
16.75000 15228.000
16.80000 15284.000
16.85000 15221.000
16.90000 15213.000
16.95000 15188.000
17.00000 15168.000
17.05000 15176.000
17.10000 15056.000
17.15000 15210.000
17.20000 15074.000
17.25000 15228.000
17.30000 15017.000
17.35000 15003.000
17.40000 15059.000
17.45000 14937.000
17.50000 14943.000
17.55000 15061.000
17.60000 15138.000
17.65000 15190.000
17.70000 15122.000
17.75000 15032.000
17.80000 15021.000
17.85000 14960.000
17.90000 14864.000
17.95000 14812.000
18.00000 14989.000
18.05000 14901.000
18.10000 14987.000
18.15000 14920.000
18.20000 14974.000
18.25000 14966.000
18.30000 14867.000
18.35000 14846.000
18.40000 14786.000
18.45000 14818.000
18.50000 14801.000
18.55000 14849.000
18.60000 14983.000
18.65000 14812.000
18.70000 14993.000
18.75000 14765.000
18.80000 15136.000
18.85000 14759.000
18.90000 14824.000
18.95000 14821.000
19.00000 14960.000
19.05000 14752.000
19.10000 14725.000
19.15000 14800.000
19.20000 15005.000
19.25000 14891.000
19.30000 14702.000
19.35000 14788.000
19.40000 14826.000
19.45000 14769.000
19.50000 14890.000
19.55000 14792.000
19.60000 14935.000
19.65000 14964.000
19.70000 14671.000
19.75000 14591.000
19.80000 14911.000
19.85000 14610.000
19.90000 14773.000
19.95000 14904.000
20.00000 14723.000
20.05000 14715.000
20.10000 14700.000
20.15000 14577.000
20.20000 14582.000
20.25000 14776.000
20.30000 14705.000
20.35000 14624.000
20.40000 14527.000
20.45000 14572.000
20.50000 14691.000
20.55000 14553.000
20.60000 14701.000
20.65000 14553.000
20.70000 14759.000
20.75000 14652.000
20.80000 14684.000
20.85000 14604.000
20.90000 14659.000
20.95000 14505.000
21.00000 14535.000
21.05000 14369.000
21.10000 14622.000
21.15000 14368.000
21.20000 14608.000
21.25000 14339.000
21.30000 14431.000
21.35000 14454.000
21.40000 14411.000
21.45000 14410.000
21.50000 14350.000
21.55000 14619.000
21.60000 14311.000
21.65000 14412.000
21.70000 14495.000
21.75000 14555.000
21.80000 14470.000
21.85000 14437.000
21.90000 14590.000
21.95000 14616.000
22.00000 14513.000
22.05000 14418.000
22.10000 14621.000
22.15000 14459.000
22.20000 14440.000
22.25000 14494.000
22.30000 14461.000
22.35000 14277.000
22.40000 14680.000
22.45000 14332.000
22.50000 14495.000
22.55000 14317.000
22.60000 14349.000
22.65000 14387.000
22.70000 14401.000
22.75000 14463.000
22.80000 14402.000
22.85000 14436.000
22.90000 14424.000
22.95000 14335.000
23.00000 14411.000
23.05000 14394.000
23.10000 14283.000
23.15000 14096.000
23.20000 14463.000
23.25000 14465.000
23.30000 14336.000
23.35000 14376.000
23.40000 14218.000
23.45000 14341.000
23.50000 14453.000
23.55000 14419.000
23.60000 14274.000
23.65000 14423.000
23.70000 14283.000
23.75000 14553.000
23.80000 14511.000
23.85000 14423.000
23.90000 14517.000
23.95000 14367.000
24.00000 14272.000
24.05000 14327.000
24.10000 14574.000
24.15000 14423.000
24.20000 14389.000
24.25000 14524.000
24.30000 14460.000
24.35000 14553.000
24.40000 14453.000
24.45000 14483.000
24.50000 14445.000
24.55000 14445.000
24.60000 14541.000
24.65000 14472.000
24.70000 14394.000
24.75000 14478.000
24.80000 14440.000
24.85000 14607.000
24.90000 14575.000
24.95000 14467.000
25.00000 14615.000
25.05000 14497.000
25.10000 14787.000
25.15000 14659.000
25.20000 14710.000
25.25000 14656.000
25.30000 14629.000
25.35000 14564.000
25.40000 14728.000
25.45000 14595.000
25.50000 14652.000
25.55000 14759.000
25.60000 14731.000
25.65000 14534.000
25.70000 14922.000
25.75000 14965.000
25.80000 14864.000
25.85000 14793.000
25.90000 14900.000
25.95000 14923.000
26.00000 15003.000
26.05000 14876.000
26.10000 15174.000
26.15000 15069.000
26.20000 15084.000
26.25000 15270.000
26.30000 14916.000
26.35000 15166.000
26.40000 15291.000
26.45000 15142.000
26.50000 15170.000
26.55000 15305.000
26.60000 15323.000
26.65000 15370.000
26.70000 15505.000
26.75000 15568.000
26.80000 15687.000
26.85000 15568.000
26.90000 15613.000
26.95000 15558.000
27.00000 15928.000
27.05000 15728.000
27.10000 15990.000
27.15000 16153.000
27.20000 16136.000
27.25000 16456.000
27.30000 16488.000
27.35000 16255.000
27.40000 16752.000
27.45000 16902.000
27.50000 17007.000
27.55000 17326.000
27.60000 17671.000
27.65000 17695.000
27.70000 17873.000
27.75000 18204.000
27.80000 18299.000
27.85000 18562.000
27.90000 18918.000
27.95000 19409.000
28.00000 19567.000
28.05000 19722.000
28.10000 20037.000
28.15000 20484.000
28.20000 20514.000
28.25000 20954.000
28.30000 20949.000
28.35000 21352.000
28.40000 21325.000
28.45000 21470.000
28.50000 21496.000
28.55000 21597.000
28.60000 21521.000
28.65000 21482.000
28.70000 21252.000
28.75000 21021.000
28.80000 20765.000
28.85000 20783.000
28.90000 20356.000
28.95000 19948.000
29.00000 19682.000
29.05000 19672.000
29.10000 19382.000
29.15000 19021.000
29.20000 18738.000
29.25000 18480.000
29.30000 18188.000
29.35000 18111.000
29.40000 17934.000
29.45000 17822.000
29.50000 17600.000
29.55000 17299.000
29.60000 17195.000
29.65000 17197.000
29.70000 16992.000
29.75000 16726.000
29.80000 16582.000
29.85000 16688.000
29.90000 16476.000
29.95000 16645.000
30.00000 16359.000
30.05000 16520.000
30.10000 16181.000
30.15000 16210.000
30.20000 16553.000
30.25000 16165.000
30.30000 16167.000
30.35000 16147.000
30.40000 15900.000
30.45000 15806.000
30.50000 15880.000
30.55000 15821.000
30.60000 15921.000
30.65000 15984.000
30.70000 15796.000
30.75000 15839.000
30.80000 15662.000
30.85000 15993.000
30.90000 16032.000
30.95000 15782.000
31.00000 15661.000
31.05000 15678.000
31.10000 15841.000
31.15000 15680.000
31.20000 15830.000
31.25000 15819.000
31.30000 15911.000
31.35000 15761.000
31.40000 15732.000
31.45000 16050.000
31.50000 15844.000
31.55000 15918.000
31.60000 15996.000
31.65000 15919.000
31.70000 16061.000
31.75000 15927.000
31.80000 16039.000
31.85000 16202.000
31.90000 16057.000
31.95000 16198.000
32.00000 16213.000
32.05000 16427.000
32.10000 16475.000
32.15000 16339.000
32.20000 16489.000
32.25000 16719.000
32.30000 16711.000
32.35000 17050.000
32.40000 17104.000
32.45000 16981.000
32.50000 17269.000
32.55000 17421.000
32.60000 17643.000
32.65000 17712.000
32.70000 17962.000
32.75000 17907.000
32.80000 18080.000
32.85000 18102.000
32.90000 18382.000
32.95000 18479.000
33.00000 18504.000
33.05000 18816.000
33.10000 18812.000
33.15000 19049.000
33.20000 19069.000
33.25000 19197.000
33.30000 19226.000
33.35000 19148.000
33.40000 19511.000
33.45000 19294.000
33.50000 19566.000
33.55000 19853.000
33.60000 19667.000
33.65000 19535.000
33.70000 19862.000
33.75000 20039.000
33.80000 19962.000
33.85000 19995.000
33.90000 20122.000
33.95000 19955.000
34.00000 20018.000
34.05000 19802.000
34.10000 20438.000
34.15000 20135.000
34.20000 19987.000
34.25000 20356.000
34.30000 19793.000
34.35000 19851.000
34.40000 19959.000
34.45000 19931.000
34.50000 19688.000
34.55000 19898.000
34.60000 19959.000
34.65000 19685.000
34.70000 19565.000
34.75000 19562.000
34.80000 19266.000
34.85000 19504.000
34.90000 19067.000
34.95000 19340.000
35.00000 18916.000
35.05000 19263.000
35.10000 19104.000
35.15000 18977.000
35.20000 18974.000
35.25000 18967.000
35.30000 18831.000
35.35000 18751.000
35.40000 18615.000
35.45000 18716.000
35.50000 18650.000
35.55000 18783.000
35.60000 18619.000
35.65000 18579.000
35.70000 18603.000
35.75000 18583.000
35.80000 18474.000
35.85000 18476.000
35.90000 18394.000
35.95000 18519.000
36.00000 18480.000
36.05000 18261.000
36.10000 18257.000
36.15000 18238.000
36.20000 18156.000
36.25000 18316.000
36.30000 18287.000
36.35000 18070.000
36.40000 18115.000
36.45000 18032.000
36.50000 18083.000
36.55000 18020.000
36.60000 17994.000
36.65000 18092.000
36.70000 17966.000
36.75000 17938.000
36.80000 17902.000
36.85000 17886.000
36.90000 17658.000
36.95000 17970.000
37.00000 17800.000
37.05000 17736.000
37.10000 17992.000
37.15000 17690.000
37.20000 17552.000
37.25000 17633.000
37.30000 17807.000
37.35000 17398.000
37.40000 17633.000
37.45000 17590.000
37.50000 17619.000
37.55000 17832.000
37.60000 17696.000
37.65000 17502.000
37.70000 17476.000
37.75000 17463.000
37.80000 17382.000
37.85000 17354.000
37.90000 17516.000
37.95000 17416.000
38.00000 17588.000
38.05000 17409.000
38.10000 17437.000
38.15000 17397.000
38.20000 17496.000
38.25000 17406.000
38.30000 17260.000
38.35000 17205.000
38.40000 17391.000
38.45000 17233.000
38.50000 17229.000
38.55000 17308.000
38.60000 17066.000
38.65000 17291.000
38.70000 17007.000
38.75000 17236.000
38.80000 17195.000
38.85000 17055.000
38.90000 16973.000
38.95000 17084.000
39.00000 17062.000
39.05000 17121.000
39.10000 17112.000
39.15000 16982.000
39.20000 17067.000
39.25000 17128.000
39.30000 17052.000
39.35000 17176.000
39.40000 16879.000
39.45000 16806.000
39.50000 16854.000
39.55000 17009.000
39.60000 16733.000
39.65000 16908.000
39.70000 16828.000
39.75000 16922.000
39.80000 16713.000
39.85000 16907.000
39.90000 16897.000
39.95000 16816.000
40.00000 16836.000
40.05000 16969.000
40.10000 16564.000
40.15000 16841.000
40.20000 16962.000
40.25000 16810.000
40.30000 16566.000
40.35000 16637.000
40.40000 16658.000
40.45000 16706.000
40.50000 16497.000
40.55000 16704.000
40.60000 16636.000
40.65000 16514.000
40.70000 16508.000
40.75000 16554.000
40.80000 16561.000
40.85000 16591.000
40.90000 16692.000
40.95000 16650.000
41.00000 16527.000
41.05000 16450.000
41.10000 16496.000
41.15000 16492.000
41.20000 16524.000
41.25000 16610.000
41.30000 16457.000
41.35000 16539.000
41.40000 16522.000
41.45000 16444.000
41.50000 16493.000
41.55000 16471.000
41.60000 16578.000
41.65000 16309.000
41.70000 16685.000
41.75000 16613.000
41.80000 16469.000
41.85000 16528.000
41.90000 16567.000
41.95000 16362.000
42.00000 16437.000
42.05000 16373.000
42.10000 16460.000
42.15000 16520.000
42.20000 16443.000
42.25000 16504.000
42.30000 16438.000
42.35000 16446.000
42.40000 16334.000
42.45000 16500.000
42.50000 16496.000
42.55000 16198.000
42.60000 16292.000
42.65000 16314.000
42.70000 16321.000
42.75000 16244.000
42.80000 16412.000
42.85000 16311.000
42.90000 16275.000
42.95000 16356.000
43.00000 16214.000
43.05000 16129.000
43.10000 16232.000
43.15000 16385.000
43.20000 16133.000
43.25000 16376.000
43.30000 16220.000
43.35000 16148.000
43.40000 16089.000
43.45000 16220.000
43.50000 16142.000
43.55000 16246.000
43.60000 16137.000
43.65000 16074.000
43.70000 16282.000
43.75000 16349.000
43.80000 16281.000
43.85000 16169.000
43.90000 16201.000
43.95000 16034.000
44.00000 16081.000
44.05000 16215.000
44.10000 16186.000
44.15000 16230.000
44.20000 16182.000
44.25000 16242.000
44.30000 16154.000
44.35000 16195.000
44.40000 16275.000
44.45000 16381.000
44.50000 16110.000
44.55000 16214.000
44.60000 16150.000
44.65000 16129.000
44.70000 16169.000
44.75000 16266.000
44.80000 16019.000
44.85000 16175.000
44.90000 16237.000
44.95000 16111.000
45.00000 16279.000
45.05000 16298.000
45.10000 16192.000
45.15000 16296.000
45.20000 16182.000
45.25000 16232.000
45.30000 16260.000
45.35000 16641.000
45.40000 16296.000
45.45000 16412.000
45.50000 16282.000
45.55000 16515.000
45.60000 16526.000
45.65000 16436.000
45.70000 16523.000
45.75000 16704.000
45.80000 16676.000
45.85000 16705.000
45.90000 16818.000
45.95000 16796.000
46.00000 16693.000
46.05000 16764.000
46.10000 16916.000
46.15000 16720.000
46.20000 16801.000
46.25000 16891.000
46.30000 17085.000
46.35000 17166.000
46.40000 17431.000
46.45000 17267.000
46.50000 17377.000
46.55000 17733.000
46.60000 17590.000
46.65000 18130.000
46.70000 17688.000
46.75000 18017.000
46.80000 17993.000
46.85000 17866.000
46.90000 18121.000
46.95000 18216.000
47.00000 18600.000
47.05000 18690.000
47.10000 18897.000
47.15000 18774.000
47.20000 18970.000
47.25000 18961.000
47.30000 18899.000
47.35000 19023.000
47.40000 19034.000
47.45000 19251.000
47.50000 19200.000
47.55000 18962.000
47.60000 18910.000
47.65000 18603.000
47.70000 18629.000
47.75000 18526.000
47.80000 18729.000
47.85000 18491.000
47.90000 18408.000
47.95000 18094.000
48.00000 18017.000
48.05000 17971.000
48.10000 17688.000
48.15000 17653.000
48.20000 17545.000
48.25000 17468.000
48.30000 17150.000
48.35000 16997.000
48.40000 16831.000
48.45000 16734.000
48.50000 16783.000
48.55000 16594.000
48.60000 16576.000
48.65000 16648.000
48.70000 16481.000
48.75000 16411.000
48.80000 16367.000
48.85000 16273.000
48.90000 16012.000
48.95000 15779.000
49.00000 15896.000
49.05000 15778.000
49.10000 15683.000
49.15000 15787.000
49.20000 15901.000
49.25000 15880.000
49.30000 15701.000
49.35000 15777.000
49.40000 15925.000
49.45000 15772.000
49.50000 15562.000
49.55000 15422.000
49.60000 15617.000
49.65000 15668.000
49.70000 15350.000
49.75000 15450.000
49.80000 15556.000
49.85000 15518.000
49.90000 15547.000
49.95000 15463.000
50.00000 15291.000
50.05000 15192.000
50.10000 15295.000
50.15000 15132.000
50.20000 15366.000
50.25000 15336.000
50.30000 15255.000
50.35000 15289.000
50.40000 15335.000
50.45000 15350.000
50.50000 15256.000
50.55000 15248.000
50.60000 15236.000
50.65000 15474.000
50.70000 15084.000
50.75000 15065.000
50.80000 15183.000
50.85000 15133.000
50.90000 15068.000
50.95000 15342.000
51.00000 15232.000
51.05000 15167.000
51.10000 15118.000
51.15000 14993.000
51.20000 15244.000
51.25000 15063.000
51.30000 15036.000
51.35000 14995.000
51.40000 15076.000
51.45000 14857.000
51.50000 14978.000
51.55000 14960.000
51.60000 15074.000
51.65000 14925.000
51.70000 14857.000
51.75000 14941.000
51.80000 14870.000
51.85000 15094.000
51.90000 14943.000
51.95000 14726.000
52.00000 14786.000
52.05000 14891.000
52.10000 14754.000
52.15000 14969.000
52.20000 14873.000
52.25000 14913.000
52.30000 14986.000
52.35000 14900.000
52.40000 14982.000
52.45000 14937.000
52.50000 14860.000
52.55000 14751.000
52.60000 14802.000
52.65000 14702.000
52.70000 14772.000
52.75000 14801.000
52.80000 14707.000
52.85000 14971.000
52.90000 14834.000
52.95000 14631.000
53.00000 14799.000
53.05000 14955.000
53.10000 14843.000
53.15000 14950.000
53.20000 14875.000
53.25000 14734.000
53.30000 14903.000
53.35000 14785.000
53.40000 14892.000
53.45000 14687.000
53.50000 14950.000
53.55000 14917.000
53.60000 14862.000
53.65000 14859.000
53.70000 14790.000
53.75000 14816.000
53.80000 14805.000
53.85000 14886.000
53.90000 14758.000
53.95000 14786.000
54.00000 14854.000
54.05000 14856.000
54.10000 14862.000
54.15000 14906.000
54.20000 14822.000
54.25000 15007.000
54.30000 14966.000
54.35000 14853.000
54.40000 14905.000
54.45000 14814.000
54.50000 14960.000
54.55000 14979.000
54.60000 15170.000
54.65000 15048.000
54.70000 15066.000
54.75000 15123.000
54.80000 15190.000
54.85000 15053.000
54.90000 15324.000
54.95000 15219.000
55.00000 15483.000
55.05000 15493.000
55.10000 15679.000
55.15000 15645.000
55.20000 15417.000
55.25000 15713.000
55.30000 15834.000
55.35000 15650.000
55.40000 15797.000
55.45000 15824.000
55.50000 15889.000
55.55000 15961.000
55.60000 16330.000
55.65000 15981.000
55.70000 16372.000
55.75000 16369.000
55.80000 16369.000
55.85000 16528.000
55.90000 16782.000
55.95000 16901.000
56.00000 16630.000
56.05000 16656.000
56.10000 16993.000
56.15000 16843.000
56.20000 17046.000
56.25000 16966.000
56.30000 16946.000
56.35000 17018.000
56.40000 16889.000
56.45000 16778.000
56.50000 16841.000
56.55000 16754.000
56.60000 16702.000
56.65000 16794.000
56.70000 16518.000
56.75000 16543.000
56.80000 16514.000
56.85000 16363.000
56.90000 16387.000
56.95000 16117.000
57.00000 16385.000
57.05000 16125.000
57.10000 15838.000
57.15000 16033.000
57.20000 15965.000
57.25000 15799.000
57.30000 15945.000
57.35000 15594.000
57.40000 15719.000
57.45000 15268.000
57.50000 15319.000
57.55000 15504.000
57.60000 15382.000
57.65000 15324.000
57.70000 15229.000
57.75000 15605.000
57.80000 15063.000
57.85000 15309.000
57.90000 15381.000
57.95000 15128.000
58.00000 15337.000
58.05000 15225.000
58.10000 15281.000
58.15000 15145.000
58.20000 15432.000
58.25000 15247.000
58.30000 15100.000
58.35000 15488.000
58.40000 15344.000
58.45000 15346.000
58.50000 15418.000
58.55000 15508.000
58.60000 15324.000
58.65000 15578.000
58.70000 15588.000
58.75000 15387.000
58.80000 15580.000
58.85000 15600.000
58.90000 15731.000
58.95000 15753.000
59.00000 15791.000
59.05000 15635.000
59.10000 15926.000
59.15000 15737.000
59.20000 15845.000
59.25000 15927.000
59.30000 15932.000
59.35000 16044.000
59.40000 15969.000
59.45000 15906.000
59.50000 15952.000
59.55000 16288.000
59.60000 16193.000
59.65000 16314.000
59.70000 16413.000
59.75000 16437.000
59.80000 16424.000
59.85000 16523.000
59.90000 16416.000
59.95000 16765.000
60.00000 16588.000
60.05000 16505.000
60.10000 16796.000
60.15000 16583.000
60.20000 16671.000
60.25000 16728.000
60.30000 16578.000
60.35000 16818.000
60.40000 16826.000
60.45000 16759.000
60.50000 16604.000
60.55000 16775.000
60.60000 16635.000
60.65000 16662.000
60.70000 16511.000
60.75000 16570.000
60.80000 16623.000
60.85000 16569.000
60.90000 16654.000
60.95000 16533.000
61.00000 16155.000
61.05000 16230.000
61.10000 16297.000
61.15000 16105.000
61.20000 16047.000
61.25000 16315.000
61.30000 15879.000
61.35000 15993.000
61.40000 15836.000
61.45000 15868.000
61.50000 15649.000
61.55000 15692.000
61.60000 15692.000
61.65000 15754.000
61.70000 15497.000
61.75000 15558.000
61.80000 15591.000
61.85000 15497.000
61.90000 15410.000
61.95000 15292.000
62.00000 15332.000
62.05000 15337.000
62.10000 15185.000
62.15000 15176.000
62.20000 15192.000
62.25000 15157.000
62.30000 14932.000
62.35000 15289.000
62.40000 14958.000
62.45000 14800.000
62.50000 14831.000
62.55000 14796.000
62.60000 14884.000
62.65000 14840.000
62.70000 14742.000
62.75000 14683.000
62.80000 14500.000
62.85000 14459.000
62.90000 14592.000
62.95000 14585.000
63.00000 14656.000
63.05000 14499.000
63.10000 14383.000
63.15000 14551.000
63.20000 14455.000
63.25000 14252.000
63.30000 14592.000
63.35000 14273.000
63.40000 14224.000
63.45000 14288.000
63.50000 14326.000
63.55000 14488.000
63.60000 14289.000
63.65000 14030.000
63.70000 14149.000
63.75000 14222.000
63.80000 14180.000
63.85000 14234.000
63.90000 14119.000
63.95000 14194.000
64.00000 14185.000
64.05000 14009.000
64.10000 14195.000
64.15000 14023.000
64.20000 13990.000
64.25000 13799.000
64.30000 13915.000
64.35000 14003.000
64.40000 13807.000
64.45000 14128.000
64.50000 14048.000
64.55000 14279.000
64.60000 13840.000
64.65000 13830.000
64.70000 13838.000
64.75000 13872.000
64.80000 13871.000
64.85000 14039.000
64.90000 13782.000
64.95000 13857.000
65.00000 13984.000
65.05000 13760.000
65.10000 13974.000
65.15000 13878.000
65.20000 13782.000
65.25000 13869.000
65.30000 13856.000
65.35000 13583.000
65.40000 13635.000
65.45000 13806.000
65.50000 13754.000
65.55000 13719.000
65.60000 13582.000
65.65000 13685.000
65.70000 13652.000
65.75000 13552.000
65.80000 13659.000
65.85000 13622.000
65.90000 13665.000
65.95000 13622.000
66.00000 13726.000
66.05000 13841.000
66.10000 13642.000
66.15000 13519.000
66.20000 13656.000
66.25000 13569.000
66.30000 13715.000
66.35000 13500.000
66.40000 13643.000
66.45000 13518.000
66.50000 13581.000
66.55000 13688.000
66.60000 13699.000
66.65000 13620.000
66.70000 13592.000
66.75000 13598.000
66.80000 13478.000
66.85000 13496.000
66.90000 13255.000
66.95000 13577.000
67.00000 13306.000
67.05000 13494.000
67.10000 13466.000
67.15000 13812.000
67.20000 13559.000
67.25000 13464.000
67.30000 13459.000
67.35000 13528.000
67.40000 13473.000
67.45000 13439.000
67.50000 13567.000
67.55000 13634.000
67.60000 13415.000
67.65000 13297.000
67.70000 13449.000
67.75000 13347.000
67.80000 13496.000
67.85000 13582.000
67.90000 13273.000
67.95000 13471.000
68.00000 13485.000
68.05000 13493.000
68.10000 13610.000
68.15000 13561.000
68.20000 13829.000
68.25000 13509.000
68.30000 13502.000
68.35000 13567.000
68.40000 13423.000
68.45000 13522.000
68.50000 13522.000
68.55000 13586.000
68.60000 13436.000
68.65000 13566.000
68.70000 13583.000
68.75000 13568.000
68.80000 13515.000
68.85000 13682.000
68.90000 13506.000
68.95000 13546.000
69.00000 13756.000
69.05000 13674.000
69.10000 13601.000
69.15000 13746.000
69.20000 13781.000
69.25000 13812.000
69.30000 13714.000
69.35000 13643.000
69.40000 13742.000
69.45000 13718.000
69.50000 13583.000
69.55000 13804.000
69.60000 13501.000
69.65000 13595.000
69.70000 13775.000
69.75000 13810.000
69.80000 13846.000
69.85000 13644.000
69.90000 13694.000
69.95000 13537.000
70.00000 13800.000
70.05000 13672.000
70.10000 13699.000
70.15000 13818.000
70.20000 13828.000
70.25000 13652.000
70.30000 13770.000
70.35000 13790.000
70.40000 13627.000
70.45000 13831.000
70.50000 13507.000
70.55000 13657.000
70.60000 13721.000
70.65000 13791.000
70.70000 13663.000
70.75000 13719.000
70.80000 13864.000
70.85000 13641.000
70.90000 13663.000
70.95000 13645.000
71.00000 13631.000
71.05000 13847.000
71.10000 13553.000
71.15000 13573.000
71.20000 13682.000
71.25000 13584.000
71.30000 13689.000
71.35000 13715.000
71.40000 13751.000
71.45000 13539.000
71.50000 13645.000
71.55000 13673.000
71.60000 13521.000
71.65000 13633.000
71.70000 13676.000
71.75000 13387.000
71.80000 13550.000
71.85000 13516.000
71.90000 13594.000
71.95000 13407.000
72.00000 13558.000
72.05000 13610.000
72.10000 13294.000
72.15000 13544.000
72.20000 13382.000
72.25000 13367.000
72.30000 13573.000
72.35000 13344.000
72.40000 13305.000
72.45000 13378.000
72.50000 13327.000
72.55000 13362.000
72.60000 13462.000
72.65000 13313.000
72.70000 13496.000
72.75000 13549.000
72.80000 13363.000
72.85000 13413.000
72.90000 13512.000
72.95000 13303.000
73.00000 13277.000
73.05000 13197.000
73.10000 13355.000
73.15000 13514.000
73.20000 13303.000
73.25000 13120.000
73.30000 13238.000
73.35000 13318.000
73.40000 13144.000
73.45000 13213.000
73.50000 13357.000
73.55000 13342.000
73.60000 13424.000
73.65000 13364.000
73.70000 13338.000
73.75000 13490.000
73.80000 13472.000
73.85000 13360.000
73.90000 13335.000
73.95000 13366.000
74.00000 13289.000
74.05000 13411.000
74.10000 13232.000
74.15000 13313.000
74.20000 13397.000
74.25000 13222.000
74.30000 13235.000
74.35000 13376.000
74.40000 13393.000
74.45000 13202.000
74.50000 13349.000
74.55000 13364.000
74.60000 13554.000
74.65000 13391.000
74.70000 13224.000
74.75000 13440.000
74.80000 13233.000
74.85000 13225.000
74.90000 13187.000
74.95000 13198.000
75.00000 13349.000
75.05000 13400.000
75.10000 13396.000
75.15000 13379.000
75.20000 13415.000
75.25000 13297.000
75.30000 13401.000
75.35000 13303.000
75.40000 13423.000
75.45000 13197.000
75.50000 13439.000
75.55000 13369.000
75.60000 13497.000
75.65000 13705.000
75.70000 13469.000
75.75000 13614.000
75.80000 13473.000
75.85000 13544.000
75.90000 13568.000
75.95000 13637.000
76.00000 13727.000
76.05000 13677.000
76.10000 13830.000
76.15000 13768.000
76.20000 13662.000
76.25000 13602.000
76.30000 13664.000
76.35000 13774.000
76.40000 13644.000
76.45000 13618.000
76.50000 13767.000
76.55000 13797.000
76.60000 13841.000
76.65000 13648.000
76.70000 13727.000
76.75000 13755.000
76.80000 13784.000
76.85000 13634.000
76.90000 13573.000
76.95000 13897.000
77.00000 13871.000
77.05000 13743.000
77.10000 13804.000
77.15000 13581.000
77.20000 13514.000
77.25000 13751.000
77.30000 13613.000
77.35000 13587.000
77.40000 13529.000
77.45000 13579.000
77.50000 13659.000
77.55000 13610.000
77.60000 13575.000
77.65000 13428.000
77.70000 13476.000
77.75000 13415.000
77.80000 13584.000
77.85000 13494.000
77.90000 13472.000
77.95000 13451.000
78.00000 13269.000
78.05000 13449.000
78.10000 13582.000
78.15000 13598.000
78.20000 13481.000
78.25000 13552.000
78.30000 13306.000
78.35000 13488.000
78.40000 13254.000
78.45000 13488.000
78.50000 13388.000
78.55000 13581.000
78.60000 13358.000
78.65000 13276.000
78.70000 13458.000
78.75000 13511.000
78.80000 13374.000
78.85000 13334.000
78.90000 13332.000
78.95000 13443.000
79.00000 13318.000
79.05000 13286.000
79.10000 13500.000
79.15000 13302.000
79.20000 13311.000
79.25000 13369.000
79.30000 13244.000
79.35000 13264.000
79.40000 13236.000
79.45000 13364.000
79.50000 13210.000
79.55000 13280.000
79.60000 13226.000
79.65000 13298.000
79.70000 13085.000
79.75000 13024.000
79.80000 13047.000
79.85000 12886.000
79.90000 13014.000
79.95000 13137.000
79.99000 12987.000