File: fig_4_nife_ceo2/Activity_1_CV/Fe100_Activity_1_CV_1_02_CV_C01.txt
Ewe/V	<I>/mA	cycle number
1,9416776E-004	-4,518190920352936E-001	1,000000000000000E+000
3,0005574E-003	-3,179338698242651E-002	1,000000000000000E+000
5,9810854E-003	-1,663478434322369E-002	1,000000000000000E+000
8,9945300E-003	-1,143572405961350E-002	1,000000000000000E+000
1,2040893E-002	-8,681149016843984E-003	1,000000000000000E+000
1,4988502E-002	-6,995697949259038E-003	1,000000000000000E+000
1,8010443E-002	-5,834270512926440E-003	1,000000000000000E+000
2,0961238E-002	-4,994709540515938E-003	1,000000000000000E+000
2,4192285E-002	-4,392094510361398E-003	1,000000000000000E+000
2,7148465E-002	-3,885162621360364E-003	1,000000000000000E+000
3,0175710E-002	-3,481290257964047E-003	1,000000000000000E+000
3,3148807E-002	-3,129578117242120E-003	1,000000000000000E+000
3,6215339E-002	-2,830589042213998E-003	1,000000000000000E+000
3,9170388E-002	-2,583370236000825E-003	1,000000000000000E+000
4,2164721E-002	-2,362329237354587E-003	1,000000000000000E+000
4,5159049E-002	-2,168214661123337E-003	1,000000000000000E+000
4,8189487E-002	-1,995357847072991E-003	1,000000000000000E+000
5,1158331E-002	-1,839982770543595E-003	1,000000000000000E+000
5,4117620E-002	-1,711334285140590E-003	1,000000000000000E+000
5,7213888E-002	-1,585264807691597E-003	1,000000000000000E+000
6,0182739E-002	-1,465551710863846E-003	1,000000000000000E+000
6,3136719E-002	-1,366831874187797E-003	1,000000000000000E+000
6,6136084E-002	-1,267000187148017E-003	1,000000000000000E+000
6,9185905E-002	-1,187787426313501E-003	1,000000000000000E+000
7,2183423E-002	-1,102281625521454E-003	1,000000000000000E+000
7,5197078E-002	-1,023888622318402E-003	1,000000000000000E+000
7,8148730E-002	-9,548675470321937E-004	1,000000000000000E+000
8,1186593E-002	-8,830756895043352E-004	1,000000000000000E+000
8,4180929E-002	-8,284195729812089E-004	1,000000000000000E+000
8,7167822E-002	-7,722711084180781E-004	1,000000000000000E+000
9,0147294E-002	-7,215275257824762E-004	1,000000000000000E+000
9,3169235E-002	-6,696399054147162E-004	1,000000000000000E+000
9,6195430E-002	-6,253383417225821E-004	1,000000000000000E+000
9,9153653E-002	-5,776192359331616E-004	1,000000000000000E+000
1,0220531E-001	-5,357148579409670E-004	1,000000000000000E+000
1,0517628E-001	-4,987761512563510E-004	1,000000000000000E+000
1,0815576E-001	-4,588656731538774E-004	1,000000000000000E+000
1,1110019E-001	-4,217889607578962E-004	1,000000000000000E+000
1,1416141E-001	-3,891279312275371E-004	1,000000000000000E+000
1,1719595E-001	-3,518791176083686E-004	1,000000000000000E+000
1,2018193E-001	-3,261748447698403E-004	1,000000000000000E+000
1,2318370E-001	-2,918324821301688E-004	1,000000000000000E+000
1,2621093E-001	-2,593757494737006E-004	1,000000000000000E+000
1,2916388E-001	-2,363623892024870E-004	1,000000000000000E+000
1,3219641E-001	-2,132264286818170E-004	1,000000000000000E+000
1,3517906E-001	-1,806737221926170E-004	1,000000000000000E+000
1,3818190E-001	-1,593541565789295E-004	1,000000000000000E+000
1,4114225E-001	-1,405565611228374E-004	1,000000000000000E+000
1,4418755E-001	-1,142485585695803E-004	1,000000000000000E+000
1,4718932E-001	-9,951927310400377E-005	1,000000000000000E+000
1,5017834E-001	-7,857404310880655E-005	1,000000000000000E+000
1,5321302E-001	-5,829884764098548E-005	1,000000000000000E+000
1,5617231E-001	-4,415001953806435E-005	1,000000000000000E+000
1,5912154E-001	-3,052222407816710E-005	1,000000000000000E+000
1,6219282E-001	-1,157121964136021E-005	1,000000000000000E+000
1,6518822E-001	-2,040963187557624E-006	1,000000000000000E+000
1,6820087E-001	1,322673985768347E-005	1,000000000000000E+000
1,7122893E-001	2,869339851322117E-005	1,000000000000000E+000
1,7413618E-001	4,474056320361627E-005	1,000000000000000E+000
1,7718785E-001	5,074029489423377E-005	1,000000000000000E+000
1,8022145E-001	6,858612991058612E-005	1,000000000000000E+000
1,8314677E-001	7,404165753523682E-005	1,000000000000000E+000
1,8618676E-001	8,595759119855171E-005	1,000000000000000E+000
1,8924481E-001	9,326454209059379E-005	1,000000000000000E+000
1,9215845E-001	1,019961078829136E-004	1,000000000000000E+000
1,9517297E-001	1,051803296598778E-004	1,000000000000000E+000
1,9813542E-001	1,293757236980719E-004	1,000000000000000E+000
2,0120515E-001	1,359366597425745E-004	1,000000000000000E+000
2,0413578E-001	1,340862494028024E-004	1,000000000000000E+000
2,0716089E-001	1,441083249991504E-004	1,000000000000000E+000
2,1015702E-001	1,535999284113430E-004	1,000000000000000E+000
2,1312407E-001	1,560074564719925E-004	1,000000000000000E+000
2,1617363E-001	1,657533537305677E-004	1,000000000000000E+000
2,1911950E-001	1,682354348119568E-004	1,000000000000000E+000
2,2215486E-001	1,700689451489992E-004	1,000000000000000E+000
2,2515556E-001	1,857476097923863E-004	1,000000000000000E+000
2,2822633E-001	1,910455265406855E-004	1,000000000000000E+000
2,3118030E-001	1,916961714076649E-004	1,000000000000000E+000
2,3416509E-001	2,093926671741684E-004	1,000000000000000E+000
2,3715624E-001	2,048736420468497E-004	1,000000000000000E+000
2,4016438E-001	2,095022340102201E-004	1,000000000000000E+000
2,4320331E-001	2,183650993776735E-004	1,000000000000000E+000
2,4616791E-001	2,146401435283571E-004	1,000000000000000E+000
2,4916437E-001	2,222502026281220E-004	1,000000000000000E+000
2,5215340E-001	2,279960413897747E-004	1,000000000000000E+000
2,5514665E-001	2,293222130047659E-004	1,000000000000000E+000
2,5813246E-001	2,399217764128657E-004	1,000000000000000E+000
2,6114276E-001	2,417464107996102E-004	1,000000000000000E+000
2,6412541E-001	2,454085631403352E-004	1,000000000000000E+000
2,6714945E-001	2,546266145338622E-004	1,000000000000000E+000
2,7013847E-001	2,591490608226286E-004	1,000000000000000E+000
2,7317739E-001	2,634163564665662E-004	1,000000000000000E+000
2,7613989E-001	2,685418500279644E-004	1,000000000000000E+000
2,7914378E-001	2,657025790546691E-004	1,000000000000000E+000
2,8216785E-001	2,801278529658826E-004	1,000000000000000E+000
2,8517917E-001	2,875101984507709E-004	1,000000000000000E+000
2,8816074E-001	2,860220221247191E-004	1,000000000000000E+000
2,9116571E-001	2,990718385329923E-004	1,000000000000000E+000
2,9413670E-001	3,003799987041310E-004	1,000000000000000E+000
2,9720214E-001	3,051687122220235E-004	1,000000000000000E+000
3,0016041E-001	3,180002593935593E-004	1,000000000000000E+000
3,0311108E-001	3,227202928315328E-004	1,000000000000000E+000
3,0614907E-001	3,295295225809645E-004	1,000000000000000E+000
3,0919755E-001	3,375998932552354E-004	1,000000000000000E+000
3,1219330E-001	3,441547351702365E-004	1,000000000000000E+000
3,1510764E-001	3,533796276694598E-004	1,000000000000000E+000
3,1813061E-001	3,564165309747490E-004	1,000000000000000E+000
3,2114404E-001	3,714309458888558E-004	1,000000000000000E+000
3,2413203E-001	3,768647628334893E-004	1,000000000000000E+000
3,2708812E-001	3,816674029962226E-004	1,000000000000000E+000
3,3018973E-001	3,849218298008000E-004	1,000000000000000E+000
3,3312565E-001	3,952546567584682E-004	1,000000000000000E+000
3,3612314E-001	3,994016640268168E-004	1,000000000000000E+000
3,3916211E-001	4,078231756596169E-004	1,000000000000000E+000
3,4209272E-001	4,205431467244006E-004	1,000000000000000E+000
3,4516242E-001	4,278677702946598E-004	1,000000000000000E+000
3,4817055E-001	4,334270593361741E-004	1,000000000000000E+000
3,5115430E-001	4,396533842485374E-004	1,000000000000000E+000
3,5412309E-001	4,515988587703171E-004	1,000000000000000E+000
3,5716102E-001	4,600129140768759E-004	1,000000000000000E+000
3,6013725E-001	4,691874948214393E-004	1,000000000000000E+000
3,6315069E-001	4,738727279267741E-004	1,000000000000000E+000
3,6611852E-001	4,835762243815996E-004	1,000000000000000E+000
3,6914366E-001	4,956990601499196E-004	1,000000000000000E+000
3,7212840E-001	5,045054307930598E-004	1,000000000000000E+000
3,7514505E-001	5,125471495567473E-004	1,000000000000000E+000
3,7814999E-001	5,250256667100727E-004	1,000000000000000E+000
3,8109866E-001	5,322776145385661E-004	1,000000000000000E+000
3,8412806E-001	5,455219485329937E-004	1,000000000000000E+000
3,8716376E-001	5,519357018618941E-004	1,000000000000000E+000
3,9012408E-001	5,614489106399532E-004	1,000000000000000E+000
3,9318532E-001	5,788694753410166E-004	1,000000000000000E+000
3,9616263E-001	5,898469922052162E-004	1,000000000000000E+000
3,9916655E-001	6,048152428441093E-004	1,000000000000000E+000
4,0216199E-001	6,114862184003946E-004	1,000000000000000E+000
4,0513030E-001	6,308649369773738E-004	1,000000000000000E+000
4,0816441E-001	6,422235001371009E-004	1,000000000000000E+000
4,1117787E-001	6,549323522599985E-004	1,000000000000000E+000
4,1420302E-001	6,660005110708991E-004	1,000000000000000E+000
4,1712406E-001	6,790302934131937E-004	1,000000000000000E+000
4,2013964E-001	6,946067341419941E-004	1,000000000000000E+000
4,2317644E-001	7,118960839470907E-004	1,000000000000000E+000
4,2618456E-001	7,303030497805719E-004	1,000000000000000E+000
4,2911944E-001	7,470142861790985E-004	1,000000000000000E+000
4,3212444E-001	7,725538053486962E-004	1,000000000000000E+000
4,3514207E-001	7,967677895867158E-004	1,000000000000000E+000
4,3809712E-001	8,186562120576051E-004	1,000000000000000E+000
4,4112653E-001	8,502120430103621E-004	1,000000000000000E+000
4,4417819E-001	8,761458773902542E-004	1,000000000000000E+000
4,4713736E-001	9,182347100298695E-004	1,000000000000000E+000
4,5014244E-001	9,575266426313286E-004	1,000000000000000E+000
4,5315695E-001	1,004250275682949E-003	1,000000000000000E+000
4,5613110E-001	1,062760673056943E-003	1,000000000000000E+000
4,5912647E-001	1,129304638756833E-003	1,000000000000000E+000
4,6216750E-001	1,195231179801852E-003	1,000000000000000E+000
4,6515444E-001	1,278032403049717E-003	1,000000000000000E+000
4,6817955E-001	1,359905738172938E-003	1,000000000000000E+000
4,7115582E-001	1,470105993101666E-003	1,000000000000000E+000
4,7419158E-001	1,592498932014248E-003	1,000000000000000E+000
4,7718486E-001	1,733579084576371E-003	1,000000000000000E+000
4,8011762E-001	1,913975972066901E-003	1,000000000000000E+000
4,8312363E-001	2,151319734517095E-003	1,000000000000000E+000
4,8620713E-001	2,452844702467753E-003	1,000000000000000E+000
4,8914817E-001	2,858629545044178E-003	1,000000000000000E+000
4,9212891E-001	3,377321431004911E-003	1,000000000000000E+000
4,9508604E-001	4,066282798515793E-003	1,000000000000000E+000
4,9815810E-001	4,965831002262028E-003	1,000000000000000E+000
5,0111294E-001	6,150560203775787E-003	1,000000000000000E+000
5,0416034E-001	7,723763874809039E-003	1,000000000000000E+000
5,0712287E-001	9,713593112381902E-003	1,000000000000000E+000
5,1021379E-001	1,215184926111602E-002	1,000000000000000E+000
5,1324427E-001	1,458743059122830E-002	1,000000000000000E+000
5,1624072E-001	1,701323254416159E-002	1,000000000000000E+000
5,1925206E-001	1,935081569348039E-002	1,000000000000000E+000
5,2224416E-001	2,169811352242686E-002	1,000000000000000E+000
5,2524072E-001	2,402129669910269E-002	1,000000000000000E+000
5,2824885E-001	2,640645508918404E-002	1,000000000000000E+000
5,3125584E-001	2,873890381807975E-002	1,000000000000000E+000
5,3426296E-001	3,108730767573745E-002	1,000000000000000E+000
5,3726685E-001	3,334665639075729E-002	1,000000000000000E+000
5,4021233E-001	3,550318661773658E-002	1,000000000000000E+000
5,4321730E-001	3,743877246249430E-002	1,000000000000000E+000
5,4625732E-001	3,949612321816770E-002	1,000000000000000E+000
5,4926330E-001	4,182400654968677E-002	1,000000000000000E+000
5,5226612E-001	4,479162179618901E-002	1,000000000000000E+000
5,5529767E-001	4,865898400314927E-002	1,000000000000000E+000
5,5820173E-001	5,364231880682446E-002	1,000000000000000E+000
5,6125551E-001	6,001118096985469E-002	1,000000000000000E+000
5,6428808E-001	6,718162451437840E-002	1,000000000000000E+000
5,6727076E-001	7,639250246007590E-002	1,000000000000000E+000
5,7025760E-001	8,652303334802813E-002	1,000000000000000E+000
5,7330501E-001	9,841990151522850E-002	1,000000000000000E+000
5,7632905E-001	1,121080029194084E-001	1,000000000000000E+000
5,7932025E-001	1,270203561830396E-001	1,000000000000000E+000
5,8232605E-001	1,435728512616171E-001	1,000000000000000E+000
5,8537793E-001	1,621201828812708E-001	1,000000000000000E+000
5,8836591E-001	1,815485580868659E-001	1,000000000000000E+000
5,9133291E-001	2,036352363487497E-001	1,000000000000000E+000
5,9429723E-001	2,266321662251678E-001	1,000000000000000E+000
5,9730643E-001	2,524817829356096E-001	1,000000000000000E+000
6,0033578E-001	2,782659855398819E-001	1,000000000000000E+000
6,0332274E-001	3,090001676155592E-001	1,000000000000000E+000
6,0633826E-001	3,383359983626786E-001	1,000000000000000E+000
6,0928804E-001	3,707202863214292E-001	1,000000000000000E+000
6,1236829E-001	4,052257530070210E-001	1,000000000000000E+000
6,1531913E-001	4,418330203040675E-001	1,000000000000000E+000
6,1834532E-001	4,817708974953341E-001	1,000000000000000E+000
6,2135875E-001	5,219310659644911E-001	1,000000000000000E+000
6,2436491E-001	5,642890325779296E-001	1,000000000000000E+000
6,2733889E-001	6,100796258199512E-001	1,000000000000000E+000
6,3033652E-001	6,572388543107479E-001	1,000000000000000E+000
6,3334376E-001	7,051415810863819E-001	1,000000000000000E+000
6,3635278E-001	7,558156501696089E-001	1,000000000000000E+000
6,3932478E-001	8,067266969453715E-001	1,000000000000000E+000
6,4233714E-001	8,664629714998568E-001	1,000000000000000E+000
6,4530599E-001	9,214637571873965E-001	1,000000000000000E+000
6,4837039E-001	9,790863120873468E-001	1,000000000000000E+000
6,5134555E-001	1,039893173999126E+000	1,000000000000000E+000
6,5444714E-001	1,102295120193912E+000	1,000000000000000E+000
6,5745318E-001	1,165733726750087E+000	1,000000000000000E+000
6,6041458E-001	1,234486853006949E+000	1,000000000000000E+000
6,6349500E-001	1,302080037929713E+000	1,000000000000000E+000
6,6641814E-001	1,375151144986856E+000	1,000000000000000E+000
6,6943479E-001	1,441619118426392E+000	1,000000000000000E+000
6,7245352E-001	1,510760497039950E+000	1,000000000000000E+000
6,7543387E-001	1,589515605090845E+000	1,000000000000000E+000
6,7839658E-001	1,665864657044686E+000	1,000000000000000E+000
6,8147260E-001	1,742410945817998E+000	1,000000000000000E+000
6,8448663E-001	1,822142612360108E+000	1,000000000000000E+000
6,8745595E-001	1,896766168443385E+000	1,000000000000000E+000
6,9042051E-001	1,976037364562897E+000	1,000000000000000E+000
6,9342768E-001	2,058108380355801E+000	1,000000000000000E+000
6,9645381E-001	2,141220383396767E+000	1,000000000000000E+000
6,9946408E-001	2,220288697064184E+000	1,000000000000000E+000
7,0239151E-001	2,299834175647796E+000	1,000000000000000E+000
7,0546019E-001	2,394232790131561E+000	1,000000000000000E+000
7,0839506E-001	2,482998688424402E+000	1,000000000000000E+000
7,1148491E-001	2,571444027936784E+000	1,000000000000000E+000
7,1443146E-001	2,658958646378009E+000	1,000000000000000E+000
7,1741295E-001	2,748782406478187E+000	1,000000000000000E+000
7,2046685E-001	2,833699040165559E+000	1,000000000000000E+000
7,2346866E-001	2,933748454700249E+000	1,000000000000000E+000
7,2640818E-001	3,020112486855465E+000	1,000000000000000E+000
7,2943395E-001	3,119078792766778E+000	1,000000000000000E+000
7,3240912E-001	3,209894890958232E+000	1,000000000000000E+000
7,3544383E-001	3,302537317347614E+000	1,000000000000000E+000
7,3848063E-001	3,403297504228519E+000	1,000000000000000E+000
7,4144310E-001	3,494925322209617E+000	1,000000000000000E+000
7,4443960E-001	3,597960901875339E+000	1,000000000000000E+000
7,4747223E-001	3,687176123937249E+000	1,000000000000000E+000
7,5044632E-001	3,782373750088176E+000	1,000000000000000E+000
7,5340778E-001	3,881478945887281E+000	1,000000000000000E+000
7,5641578E-001	3,981644769171737E+000	1,000000000000000E+000
7,5943786E-001	4,086294077961881E+000	1,000000000000000E+000
7,6245022E-001	4,189397023006649E+000	1,000000000000000E+000
7,6543069E-001	4,281832157078789E+000	1,000000000000000E+000
7,6847064E-001	4,390562583373121E+000	1,000000000000000E+000
7,7138960E-001	4,486422676753563E+000	1,000000000000000E+000
7,7442116E-001	4,595925356829534E+000	1,000000000000000E+000
7,7742499E-001	4,701399474896817E+000	1,000000000000000E+000
7,8040022E-001	4,808473131587707E+000	1,000000000000000E+000
7,8343064E-001	4,901424073206613E+000	1,000000000000000E+000
7,8643239E-001	5,014172871299337E+000	1,000000000000000E+000
7,8939277E-001	5,117045390092357E+000	1,000000000000000E+000
7,9243493E-001	5,223263842854124E+000	1,000000000000000E+000
7,9543668E-001	5,327466513834855E+000	1,000000000000000E+000
7,9837155E-001	5,431057953003316E+000	1,000000000000000E+000
8,0142105E-001	5,543159842626288E+000	1,000000000000000E+000
8,0444402E-001	5,639086510758005E+000	1,000000000000000E+000
8,0741924E-001	5,739245719616378E+000	1,000000000000000E+000
8,1045675E-001	5,856304070414595E+000	1,000000000000000E+000
8,1341642E-001	5,957358659462614E+000	1,000000000000000E+000
8,1641185E-001	6,077315182946705E+000	1,000000000000000E+000
8,1945574E-001	6,185779989080991E+000	1,000000000000000E+000
8,2240039E-001	6,290079805923966E+000	1,000000000000000E+000
8,2538110E-001	6,398576020856567E+000	1,000000000000000E+000
8,2839376E-001	6,515134950232735E+000	1,000000000000000E+000
8,3143759E-001	6,611057442332026E+000	1,000000000000000E+000
8,3440328E-001	6,725305813104939E+000	1,000000000000000E+000
8,3741671E-001	6,835081128576748E+000	1,000000000000000E+000
8,4044611E-001	6,942621257029426E+000	1,000000000000000E+000
8,4340328E-001	7,044827617012189E+000	1,000000000000000E+000
8,4636682E-001	7,167960523072310E+000	1,000000000000000E+000
8,4944510E-001	7,250669580603400E+000	1,000000000000000E+000
8,5241288E-001	7,391012815255962E+000	1,000000000000000E+000
8,5545802E-001	7,503483571365564E+000	1,000000000000000E+000
8,5842800E-001	7,608323357543213E+000	1,000000000000000E+000
8,6137640E-001	7,710318855686523E+000	1,000000000000000E+000
8,6441785E-001	7,831684973707510E+000	1,000000000000000E+000
8,6743337E-001	7,935017579266823E+000	1,000000000000000E+000
8,7043428E-001	8,028557900128078E+000	1,000000000000000E+000
8,7340492E-001	8,162118069574163E+000	1,000000000000000E+000
8,7643546E-001	8,268968864498220E+000	1,000000000000000E+000
8,7940538E-001	8,374331247576791E+000	1,000000000000000E+000
8,8245392E-001	8,495407392851632E+000	1,000000000000000E+000
8,8547271E-001	8,589472451920898E+000	1,000000000000000E+000
8,8838840E-001	8,720496193419264E+000	1,000000000000000E+000
8,9142090E-001	8,828380785966957E+000	1,000000000000000E+000
8,9445776E-001	8,939618308663086E+000	1,000000000000000E+000
8,9741600E-001	9,044801066792246E+000	1,000000000000000E+000
9,0040076E-001	9,154534260972561E+000	1,000000000000000E+000
9,0342164E-001	9,278434942166015E+000	1,000000000000000E+000
9,0640521E-001	9,391484325434874E+000	1,000000000000000E+000
9,0944958E-001	9,498985288364846E+000	1,000000000000000E+000
9,1241622E-001	9,611027937139170E+000	1,000000000000000E+000
9,1539890E-001	9,711240924404876E+000	1,000000000000000E+000
9,1839963E-001	9,818392127346840E+000	1,000000000000000E+000
9,2137682E-001	9,907157709425519E+000	1,000000000000000E+000
9,2442542E-001	1,002161485091898E+001	1,000000000000000E+000
9,2741764E-001	1,016458880049842E+001	1,000000000000000E+000
9,3037695E-001	1,025784097601765E+001	1,000000000000000E+000
9,3339360E-001	1,038406103545306E+001	1,000000000000000E+000
9,3639529E-001	1,049323341878903E+001	1,000000000000000E+000
9,3945968E-001	1,059339839071376E+001	1,000000000000000E+000
9,4239670E-001	1,072439839179015E+001	1,000000000000000E+000
9,4554144E-001	1,082073394362333E+001	1,000000000000000E+000
9,4863284E-001	1,094908613196305E+001	1,000000000000000E+000
9,5161450E-001	1,108081552683630E+001	1,000000000000000E+000
9,5462567E-001	1,117020834029051E+001	1,000000000000000E+000
9,5765185E-001	1,126911958700668E+001	1,000000000000000E+000
9,6064627E-001	1,138450855503277E+001	1,000000000000000E+000
9,6355611E-001	1,150239532373723E+001	1,000000000000000E+000
9,6663493E-001	1,159959449350424E+001	1,000000000000000E+000
9,6958894E-001	1,171761550560012E+001	1,000000000000000E+000
9,7262895E-001	1,184740302899252E+001	1,000000000000000E+000
9,7563279E-001	1,192908620962749E+001	1,000000000000000E+000
9,7859418E-001	1,205813935054402E+001	1,000000000000000E+000
9,8164487E-001	1,215586625069986E+001	1,000000000000000E+000
9,8458183E-001	1,225322615850267E+001	1,000000000000000E+000
9,8761863E-001	1,239295959040151E+001	1,000000000000000E+000
9,9064279E-001	1,250106488090526E+001	1,000000000000000E+000
9,9357015E-001	1,257068499564582E+001	1,000000000000000E+000
9,9670023E-001	1,269482312343830E+001	1,000000000000000E+000
9,9946648E-001	1,279310743378946E+001	1,000000000000000E+000
9,9828666E-001	1,273422157521150E+001	1,000000000000000E+000
9,9525410E-001	1,254419347461393E+001	1,000000000000000E+000
9,9226296E-001	1,239446588864135E+001	1,000000000000000E+000
9,8934346E-001	1,222633224708341E+001	1,000000000000000E+000
9,8630828E-001	1,208012153948241E+001	1,000000000000000E+000
9,8327583E-001	1,194497045367751E+001	1,000000000000000E+000
9,8027593E-001	1,178086297106273E+001	1,000000000000000E+000
9,7732961E-001	1,162746032822433E+001	1,000000000000000E+000
9,7431403E-001	1,150308544788504E+001	1,000000000000000E+000
9,7134942E-001	1,134523200340014E+001	1,000000000000000E+000
9,6830845E-001	1,122899975825328E+001	1,000000000000000E+000
9,6533096E-001	1,110274600056837E+001	1,000000000000000E+000
9,6229839E-001	1,092870777561552E+001	1,000000000000000E+000
9,5928609E-001	1,082987754976125E+001	1,000000000000000E+000
9,5630878E-001	1,067844030774640E+001	1,000000000000000E+000
9,5326346E-001	1,056311210956163E+001	1,000000000000000E+000
9,5028931E-001	1,042542383372111E+001	1,000000000000000E+000
9,4729495E-001	1,028387422227803E+001	1,000000000000000E+000
9,4432068E-001	1,015137476391267E+001	1,000000000000000E+000
9,4127870E-001	1,002177442823137E+001	1,000000000000000E+000
9,3836135E-001	9,912946742659358E+000	1,000000000000000E+000
9,3530279E-001	9,786953731188717E+000	1,000000000000000E+000
9,3229467E-001	9,650184931736163E+000	1,000000000000000E+000
9,2928934E-001	9,530915386579181E+000	1,000000000000000E+000
9,2627621E-001	9,418063341827946E+000	1,000000000000000E+000
9,2325652E-001	9,279328181765251E+000	1,000000000000000E+000
9,2027795E-001	9,160263905990170E+000	1,000000000000000E+000
9,1726989E-001	9,024956417462136E+000	1,000000000000000E+000
9,1429240E-001	8,931576750919135E+000	1,000000000000000E+000
9,1132581E-001	8,782227358039549E+000	1,000000000000000E+000
9,0831554E-001	8,676635035649468E+000	1,000000000000000E+000
9,0526277E-001	8,555113703755858E+000	1,000000000000000E+000
9,0226954E-001	8,427939181762994E+000	1,000000000000000E+000
8,9933676E-001	8,334994146072347E+000	1,000000000000000E+000
8,9626908E-001	8,224657285124664E+000	1,000000000000000E+000
8,9327908E-001	8,089528345669748E+000	1,000000000000000E+000
8,9032412E-001	7,996373225366749E+000	1,000000000000000E+000
8,8731569E-001	7,872333007897367E+000	1,000000000000000E+000
8,8429505E-001	7,751142226446774E+000	1,000000000000000E+000
8,8126034E-001	7,651646916490591E+000	1,000000000000000E+000
8,7828511E-001	7,536214520601419E+000	1,000000000000000E+000
8,7526208E-001	7,425029952104424E+000	1,000000000000000E+000
8,7230283E-001	7,313482593719641E+000	1,000000000000000E+000
8,6926609E-001	7,219093172187996E+000	1,000000000000000E+000
8,6628234E-001	7,095943120331441E+000	1,000000000000000E+000
8,6327952E-001	6,982638177079679E+000	1,000000000000000E+000
8,6030322E-001	6,874235440679143E+000	1,000000000000000E+000
8,5732061E-001	6,772410217393826E+000	1,000000000000000E+000
8,5430825E-001	6,655179213639570E+000	1,000000000000000E+000
8,5131061E-001	6,553302356783242E+000	1,000000000000000E+000
8,4827173E-001	6,446831424017319E+000	1,000000000000000E+000
8,4532130E-001	6,344140093591669E+000	1,000000000000000E+000
8,4228408E-001	6,240892227984091E+000	1,000000000000000E+000
8,3923995E-001	6,141164956652389E+000	1,000000000000000E+000
8,3630466E-001	6,037690100476283E+000	1,000000000000000E+000
8,3331716E-001	5,934951649940729E+000	1,000000000000000E+000
8,3034503E-001	5,823943695040796E+000	1,000000000000000E+000
8,2730609E-001	5,722133172376092E+000	1,000000000000000E+000
8,2425338E-001	5,631396623594426E+000	1,000000000000000E+000
8,2129520E-001	5,534912616251024E+000	1,000000000000000E+000
8,1825405E-001	5,440497973676173E+000	1,000000000000000E+000
8,1525230E-001	5,329575170836740E+000	1,000000000000000E+000
8,1228125E-001	5,231786648601357E+000	1,000000000000000E+000
8,0932206E-001	5,127652761414495E+000	1,000000000000000E+000
8,0631077E-001	5,027340524118245E+000	1,000000000000000E+000
8,0332279E-001	4,935127399844916E+000	1,000000000000000E+000
8,0030191E-001	4,832903331572229E+000	1,000000000000000E+000
7,9731923E-001	4,741712705956559E+000	1,000000000000000E+000
7,9431999E-001	4,656315788414343E+000	1,000000000000000E+000
7,9133701E-001	4,553351271382255E+000	1,000000000000000E+000
7,8811324E-001	4,444655818632384E+000	1,000000000000000E+000
7,8507715E-001	4,358127141519134E+000	1,000000000000000E+000
7,8215325E-001	4,266331734672185E+000	1,000000000000000E+000
7,7916002E-001	4,178575141697522E+000	1,000000000000000E+000
7,7612531E-001	4,087504876477656E+000	1,000000000000000E+000
7,7316183E-001	3,999864651874354E+000	1,000000000000000E+000
7,7013886E-001	3,904423344770528E+000	1,000000000000000E+000
7,6715821E-001	3,815125680023858E+000	1,000000000000000E+000
7,6409596E-001	3,717945354055123E+000	1,000000000000000E+000
7,6109105E-001	3,629977114515491E+000	1,000000000000000E+000
7,5809991E-001	3,540054098548806E+000	1,000000000000000E+000
7,5516182E-001	3,460600261143533E+000	1,000000000000000E+000
7,5220591E-001	3,366086560945604E+000	1,000000000000000E+000
7,4910098E-001	3,278547901077317E+000	1,000000000000000E+000
7,4612468E-001	3,199171969375634E+000	1,000000000000000E+000
7,4308240E-001	3,113463969654369E+000	1,000000000000000E+000
7,4012220E-001	3,029434526841769E+000	1,000000000000000E+000
7,3711300E-001	2,946637006083719E+000	1,000000000000000E+000
7,3411340E-001	2,868209439137630E+000	1,000000000000000E+000
7,3115087E-001	2,775590099765992E+000	1,000000000000000E+000
7,2815335E-001	2,694570842817797E+000	1,000000000000000E+000
7,2511661E-001	2,622149454374850E+000	1,000000000000000E+000
7,2211701E-001	2,535515510998763E+000	1,000000000000000E+000
7,1917576E-001	2,456350772525450E+000	1,000000000000000E+000
7,1613258E-001	2,384272737956508E+000	1,000000000000000E+000
7,1313930E-001	2,302099741691237E+000	1,000000000000000E+000
7,1014702E-001	2,228641982521869E+000	1,000000000000000E+000
7,0714211E-001	2,146450219477401E+000	1,000000000000000E+000
7,0412016E-001	2,074512652613535E+000	1,000000000000000E+000
7,0112574E-001	2,005242747671659E+000	1,000000000000000E+000
6,9815278E-001	1,929913505810456E+000	1,000000000000000E+000
6,9521898E-001	1,853473586712436E+000	1,000000000000000E+000
6,9216949E-001	1,784094730054459E+000	1,000000000000000E+000
6,8911457E-001	1,717036950615259E+000	1,000000000000000E+000
6,8608832E-001	1,649832616469352E+000	1,000000000000000E+000
6,8314397E-001	1,582289626167206E+000	1,000000000000000E+000
6,8009013E-001	1,515710423770205E+000	1,000000000000000E+000
6,7714894E-001	1,455464920844221E+000	1,000000000000000E+000
6,7412484E-001	1,389181737067883E+000	1,000000000000000E+000
6,7109549E-001	1,331798422093296E+000	1,000000000000000E+000
6,6814256E-001	1,269054531586483E+000	1,000000000000000E+000
6,6515988E-001	1,205116753092633E+000	1,000000000000000E+000
6,6212201E-001	1,145573961550618E+000	1,000000000000000E+000
6,5911204E-001	1,088775728248725E+000	1,000000000000000E+000
6,5615672E-001	1,035251943128447E+000	1,000000000000000E+000
6,5316665E-001	9,788866286712938E-001	1,000000000000000E+000
6,5009773E-001	9,265003442055928E-001	1,000000000000000E+000
6,4708877E-001	8,777185505310925E-001	1,000000000000000E+000
6,4411777E-001	8,262086786549379E-001	1,000000000000000E+000
6,4115959E-001	7,771931771619762E-001	1,000000000000000E+000
6,3811004E-001	7,346858120567745E-001	1,000000000000000E+000
6,3514966E-001	6,835474895055751E-001	1,000000000000000E+000
6,3216174E-001	6,405007731963508E-001	1,000000000000000E+000
6,2908137E-001	5,974082489056594E-001	1,000000000000000E+000
6,2612414E-001	5,572526908295892E-001	1,000000000000000E+000
6,2314159E-001	5,171659401070965E-001	1,000000000000000E+000
6,2010896E-001	4,781991043413178E-001	1,000000000000000E+000
6,1702400E-001	4,437475260870265E-001	1,000000000000000E+000
6,1393130E-001	4,073274977961372E-001	1,000000000000000E+000
6,1094332E-001	3,751510781216965E-001	1,000000000000000E+000
6,0783571E-001	3,424152413074093E-001	1,000000000000000E+000
6,0495257E-001	3,149657160204207E-001	1,000000000000000E+000
6,0198796E-001	2,861599644810775E-001	1,000000000000000E+000
5,9891933E-001	2,597020175730336E-001	1,000000000000000E+000
5,9588462E-001	2,342582329613510E-001	1,000000000000000E+000
5,9292215E-001	2,111277968101124E-001	1,000000000000000E+000
5,8998722E-001	1,898871362959026E-001	1,000000000000000E+000
5,8692819E-001	1,692456784014023E-001	1,000000000000000E+000
5,8392644E-001	1,507361665718645E-001	1,000000000000000E+000
5,8094060E-001	1,332115270978775E-001	1,000000000000000E+000
5,7795477E-001	1,177186962637344E-001	1,000000000000000E+000
5,7491153E-001	1,032817493564533E-001	1,000000000000000E+000
5,7192892E-001	9,022855040165345E-002	1,000000000000000E+000
5,6890589E-001	7,794789813064007E-002	1,000000000000000E+000
5,6590629E-001	6,726046700086924E-002	1,000000000000000E+000
5,6294483E-001	5,783257092657534E-002	1,000000000000000E+000
5,5997181E-001	4,953624716170077E-002	1,000000000000000E+000
5,5675972E-001	4,149629047579739E-002	1,000000000000000E+000
5,5378032E-001	3,507251360706026E-002	1,000000000000000E+000
5,5072010E-001	2,932189301616139E-002	1,000000000000000E+000
5,4773754E-001	2,440440914973241E-002	1,000000000000000E+000
5,4470700E-001	2,010206539472117E-002	1,000000000000000E+000
5,4177433E-001	1,642474364565880E-002	1,000000000000000E+000
5,3879166E-001	1,336288230972527E-002	1,000000000000000E+000
5,3576970E-001	1,074521647745907E-002	1,000000000000000E+000
5,3275031E-001	8,528242576160555E-003	1,000000000000000E+000
5,2968013E-001	6,703431415595998E-003	1,000000000000000E+000
5,2671027E-001	5,150048490315383E-003	1,000000000000000E+000
5,2353400E-001	3,661355150611473E-003	1,000000000000000E+000
5,2054322E-001	2,631352740917919E-003	1,000000000000000E+000
5,1758605E-001	1,772264457241626E-003	1,000000000000000E+000
5,1455665E-001	1,054911536447107E-003	1,000000000000000E+000
5,1157504E-001	4,602771170730963E-004	1,000000000000000E+000
5,0854784E-001	-3,329380232765038E-005	1,000000000000000E+000
5,0557476E-001	-4,559912165127843E-004	1,000000000000000E+000
5,0261760E-001	-8,035014815589367E-004	1,000000000000000E+000
4,9956483E-001	-1,105952282097835E-003	1,000000000000000E+000
4,9652272E-001	-1,373063129745236E-003	1,000000000000000E+000
4,9353263E-001	-1,620395509680558E-003	1,000000000000000E+000
4,9059355E-001	-1,831194377306833E-003	1,000000000000000E+000
4,8749617E-001	-2,057497417217021E-003	1,000000000000000E+000
4,8455915E-001	-2,285138963985810E-003	1,000000000000000E+000
4,8156714E-001	-2,511559252910276E-003	1,000000000000000E+000
4,7851419E-001	-2,728002172432945E-003	1,000000000000000E+000
4,7550294E-001	-3,001590240482098E-003	1,000000000000000E+000
4,7251683E-001	-3,308326340856392E-003	1,000000000000000E+000
4,6954504E-001	-3,663396803662712E-003	1,000000000000000E+000
4,6650723E-001	-4,101940431723702E-003	1,000000000000000E+000
4,6352878E-001	-4,641962658902706E-003	1,000000000000000E+000
4,6056312E-001	-5,365938447446719E-003	1,000000000000000E+000
4,5752418E-001	-6,350634667176058E-003	1,000000000000000E+000
4,5452449E-001	-7,750909331480586E-003	1,000000000000000E+000
4,5151430E-001	-9,539238957433721E-003	1,000000000000000E+000
4,4847435E-001	-1,161854108227967E-002	1,000000000000000E+000
4,4545129E-001	-1,395594089766100E-002	1,000000000000000E+000
4,4244316E-001	-1,628098108918172E-002	1,000000000000000E+000
4,3948114E-001	-1,844852037512838E-002	1,000000000000000E+000
4,3652353E-001	-2,037682418675582E-002	1,000000000000000E+000
4,3350157E-001	-2,168334247581372E-002	1,000000000000000E+000
4,3046349E-001	-2,206384646917081E-002	1,000000000000000E+000
4,2746726E-001	-2,127944679308862E-002	1,000000000000000E+000
4,2447928E-001	-1,946419325344109E-002	1,000000000000000E+000
4,2141706E-001	-1,701830174639835E-002	1,000000000000000E+000
4,1843334E-001	-1,435329142853392E-002	1,000000000000000E+000
4,1546446E-001	-1,185281944344751E-002	1,000000000000000E+000
4,1242337E-001	-9,735237011926703E-003	1,000000000000000E+000
4,0947154E-001	-8,097117563209091E-003	1,000000000000000E+000
4,0646553E-001	-6,889357619014491E-003	1,000000000000000E+000
4,0340647E-001	-5,992353820363922E-003	1,000000000000000E+000
4,0043971E-001	-5,300346167392223E-003	1,000000000000000E+000
3,9747089E-001	-4,765861125708051E-003	1,000000000000000E+000
3,9426097E-001	-4,248481818104978E-003	1,000000000000000E+000
3,9117321E-001	-3,886447664102941E-003	1,000000000000000E+000
3,8828409E-001	-3,574117447859224E-003	1,000000000000000E+000
3,8522065E-001	-3,307579415107231E-003	1,000000000000000E+000
3,8220719E-001	-3,077006582390476E-003	1,000000000000000E+000
3,7918696E-001	-2,878961765506546E-003	1,000000000000000E+000
3,7623337E-001	-2,701138410119465E-003	1,000000000000000E+000
3,7322530E-001	-2,541025482340406E-003	1,000000000000000E+000
3,7022033E-001	-2,417255680830697E-003	1,000000000000000E+000
3,6719093E-001	-2,302779619838182E-003	1,000000000000000E+000
3,6422315E-001	-2,203818138322801E-003	1,000000000000000E+000
3,6123309E-001	-2,116448185590092E-003	1,000000000000000E+000
3,5817611E-001	-2,040175072367156E-003	1,000000000000000E+000
3,5520619E-001	-1,966908276961464E-003	1,000000000000000E+000
3,5218635E-001	-1,909793762915422E-003	1,000000000000000E+000
3,4921542E-001	-1,845141910397325E-003	1,000000000000000E+000
3,4624478E-001	-1,792750233218659E-003	1,000000000000000E+000
3,4321931E-001	-1,751993810684742E-003	1,000000000000000E+000
3,4019524E-001	-1,705841700671971E-003	1,000000000000000E+000
3,3724007E-001	-1,661476477133623E-003	1,000000000000000E+000
3,3424056E-001	-1,625033266356775E-003	1,000000000000000E+000
3,3126321E-001	-1,578690347539829E-003	1,000000000000000E+000
3,2825080E-001	-1,546991231162028E-003	1,000000000000000E+000
3,2520866E-001	-1,510626456047971E-003	1,000000000000000E+000
3,2225582E-001	-1,479876176910158E-003	1,000000000000000E+000
3,1924021E-001	-1,451345788546707E-003	1,000000000000000E+000
3,1622359E-001	-1,422745271806240E-003	1,000000000000000E+000
3,1326854E-001	-1,395864478233110E-003	1,000000000000000E+000
3,1027210E-001	-1,376719877800681E-003	1,000000000000000E+000
3,0724484E-001	-1,354526107476932E-003	1,000000000000000E+000
3,0422503E-001	-1,324804711573074E-003	1,000000000000000E+000
3,0115849E-001	-1,310242675264936E-003	1,000000000000000E+000
2,9823318E-001	-1,283683699557415E-003	1,000000000000000E+000
2,9524738E-001	-1,268179026954449E-003	1,000000000000000E+000
2,9221797E-001	-1,248778096937932E-003	1,000000000000000E+000
2,8926823E-001	-1,234889705437723E-003	1,000000000000000E+000
2,8623354E-001	-1,218330211152219E-003	1,000000000000000E+000
2,8325728E-001	-1,199343011222125E-003	1,000000000000000E+000
2,8024063E-001	-1,193516287754874E-003	1,000000000000000E+000
2,7720916E-001	-1,174563510429751E-003	1,000000000000000E+000
2,7424455E-001	-1,167732661898443E-003	1,000000000000000E+000
2,7126509E-001	-1,155534739612812E-003	1,000000000000000E+000
2,6826435E-001	-1,146831902117802E-003	1,000000000000000E+000
2,6526049E-001	-1,130612141357634E-003	1,000000000000000E+000
2,6223961E-001	-1,127687129520709E-003	1,000000000000000E+000
2,5927821E-001	-1,113869115446477E-003	1,000000000000000E+000
2,5625414E-001	-1,106263282173604E-003	1,000000000000000E+000
2,5331536E-001	-1,097906981898942E-003	1,000000000000000E+000
2,5022832E-001	-1,089473993100637E-003	1,000000000000000E+000
2,4723823E-001	-1,080119268427014E-003	1,000000000000000E+000
2,4427640E-001	-1,077797610290183E-003	1,000000000000000E+000
2,4123788E-001	-1,067720007921129E-003	1,000000000000000E+000
2,3823932E-001	-1,068518459061387E-003	1,000000000000000E+000
2,3522057E-001	-1,056488336304406E-003	1,000000000000000E+000
2,3227717E-001	-1,051966308980657E-003	1,000000000000000E+000
2,2924887E-001	-1,041171244242849E-003	1,000000000000000E+000
2,2621526E-001	-1,042171417884472E-003	1,000000000000000E+000
2,2321348E-001	-1,043710184488204E-003	1,000000000000000E+000
2,2026588E-001	-1,037666557968229E-003	1,000000000000000E+000
2,1730655E-001	-1,027764380534191E-003	1,000000000000000E+000
2,1426129E-001	-1,028022067762910E-003	1,000000000000000E+000
2,1130304E-001	-1,028088238843941E-003	1,000000000000000E+000
2,0824926E-001	-1,018311596798125E-003	1,000000000000000E+000
2,0525813E-001	-1,015741723478924E-003	1,000000000000000E+000
2,0228501E-001	-1,016537163878926E-003	1,000000000000000E+000
1,9925033E-001	-1,010879266711714E-003	1,000000000000000E+000
1,9624221E-001	-1,015093997422128E-003	1,000000000000000E+000
1,9327076E-001	-1,009699809761243E-003	1,000000000000000E+000
1,9029497E-001	-1,011181068228197E-003	1,000000000000000E+000
1,8728790E-001	-1,007281277087390E-003	1,000000000000000E+000
1,8427123E-001	-1,008252399232646E-003	1,000000000000000E+000
1,8126205E-001	-1,012667161666946E-003	1,000000000000000E+000
1,7825285E-001	-1,011836697311364E-003	1,000000000000000E+000
1,7526701E-001	-1,020056662464059E-003	1,000000000000000E+000
1,7230773E-001	-1,006055716461476E-003	1,000000000000000E+000
1,6925392E-001	-1,007186361692347E-003	1,000000000000000E+000
1,6626172E-001	-1,012113749394029E-003	1,000000000000000E+000
1,6321005E-001	-1,016453753987154E-003	1,000000000000000E+000
1,6020545E-001	-1,017968658190760E-003	1,000000000000000E+000
1,5729678E-001	-1,022421773482513E-003	1,000000000000000E+000
1,5424405E-001	-1,026293732534557E-003	1,000000000000000E+000
1,5121768E-001	-1,020557562115467E-003	1,000000000000000E+000
1,4827661E-001	-1,025730821251489E-003	1,000000000000000E+000
1,4528017E-001	-1,026053338590705E-003	1,000000000000000E+000
1,4225504E-001	-1,029293900138246E-003	1,000000000000000E+000
1,3926813E-001	-1,032632339072023E-003	1,000000000000000E+000
1,3624302E-001	-1,039159351747254E-003	1,000000000000000E+000
1,3326249E-001	-1,035410075380078E-003	1,000000000000000E+000
1,3029681E-001	-1,039972787012775E-003	1,000000000000000E+000
1,2723240E-001	-1,039013171027290E-003	1,000000000000000E+000
1,2422004E-001	-1,039396840719652E-003	1,000000000000000E+000
1,2128410E-001	-1,033050458707812E-003	1,000000000000000E+000
1,1825898E-001	-1,037255290486136E-003	1,000000000000000E+000
1,1524233E-001	-1,036488940771881E-003	1,000000000000000E+000
1,1221828E-001	-1,042930187445034E-003	1,000000000000000E+000
1,0924524E-001	-1,040911771632051E-003	1,000000000000000E+000
1,0628270E-001	-1,033916049769882E-003	1,000000000000000E+000
1,0331281E-001	-1,037982542817404E-003	1,000000000000000E+000
1,0022134E-001	-1,035090212145186E-003	1,000000000000000E+000
9,7257242E-002	-1,035160578734793E-003	1,000000000000000E+000
9,4289444E-002	-1,032124312638820E-003	1,000000000000000E+000
9,1249466E-002	-1,039717104293873E-003	1,000000000000000E+000
8,8237084E-002	-1,034378927846663E-003	1,000000000000000E+000
8,5279912E-002	-1,039969821012374E-003	1,000000000000000E+000
8,2239926E-002	-1,038474723930789E-003	1,000000000000000E+000
7,9279572E-002	-1,038238997175532E-003	1,000000000000000E+000
7,6264001E-002	-1,041313317099040E-003	1,000000000000000E+000
7,3256925E-002	-1,037162403144668E-003	1,000000000000000E+000
7,0249848E-002	-1,043076538481805E-003	1,000000000000000E+000
6,7307010E-002	-1,040863105889244E-003	1,000000000000000E+000
6,4234637E-002	-1,040099655287138E-003	1,000000000000000E+000
6,1235003E-002	-1,042920386235163E-003	1,000000000000000E+000
5,8238357E-002	-1,041742145614697E-003	1,000000000000000E+000
5,5262268E-002	-1,037315141218315E-003	1,000000000000000E+000
5,2260499E-002	-1,043000235464817E-003	1,000000000000000E+000
4,9245995E-002	-1,045005427842874E-003	1,000000000000000E+000
4,6267595E-002	-1,038251994733376E-003	1,000000000000000E+000
4,3249901E-002	-1,040548779502447E-003	1,000000000000000E+000
4,0266186E-002	-1,040798521154471E-003	1,000000000000000E+000
3,7265480E-002	-1,038310499957860E-003	1,000000000000000E+000
3,4248851E-002	-1,041057210114264E-003	1,000000000000000E+000
3,1266198E-002	-1,032030103589124E-003	1,000000000000000E+000
2,8265499E-002	-1,039385910012230E-003	1,000000000000000E+000
2,5284968E-002	-1,035039308649864E-003	1,000000000000000E+000
2,2243915E-002	-1,033301129438580E-003	1,000000000000000E+000
1,9228350E-002	-1,037001718166167E-003	1,000000000000000E+000
1,6261715E-002	-1,027566469254951E-003	1,000000000000000E+000
1,3273665E-002	-1,026673798367564E-003	1,000000000000000E+000
1,0266591E-002	-1,034216967076017E-003	1,000000000000000E+000
7,2898474E-003	-1,027498754030355E-003	1,000000000000000E+000
4,2556282E-003	-1,030792377199111E-003	1,000000000000000E+000
1,2708529E-003	-1,031064163055852E-003	1,000000000000000E+000
-7,3410905E-005	-1,049884698837630E-003	1,000000000000000E+000