File: fig_4_nife_ceo2/Activity_1_CV/Ni10Fe90_Activity_1_CV1_02_CV_C01.txt
Ewe/V	<I>/mA	cycle number
4,0235359E-004	-4,740545749664307E-001	1,000000000000000E+000
3,0558412E-003	-3,418568865941998E-002	1,000000000000000E+000
5,9482385E-003	-1,806506863306859E-002	1,000000000000000E+000
9,0147741E-003	-1,249657622191380E-002	1,000000000000000E+000
1,1985745E-002	-9,576746344509848E-003	1,000000000000000E+000
1,5051686E-002	-7,760578741999005E-003	1,000000000000000E+000
1,7982902E-002	-6,514338219932705E-003	1,000000000000000E+000
2,0987855E-002	-5,576778889201828E-003	1,000000000000000E+000
2,4008732E-002	-4,864680051250292E-003	1,000000000000000E+000
2,7090132E-002	-4,316909621104585E-003	1,000000000000000E+000
3,0047184E-002	-3,851495192080235E-003	1,000000000000000E+000
3,3097908E-002	-3,474208173470612E-003	1,000000000000000E+000
3,6114540E-002	-3,155181986053288E-003	1,000000000000000E+000
3,9104622E-002	-2,869447731538875E-003	1,000000000000000E+000
4,2057544E-002	-2,613094141483099E-003	1,000000000000000E+000
4,5053996E-002	-2,398534645123161E-003	1,000000000000000E+000
4,8113104E-002	-2,202894831692129E-003	1,000000000000000E+000
5,1111676E-002	-2,034886786130147E-003	1,000000000000000E+000
5,4129373E-002	-1,877974665520844E-003	1,000000000000000E+000
5,7102468E-002	-1,738083228932714E-003	1,000000000000000E+000
6,0089368E-002	-1,608146432248794E-003	1,000000000000000E+000
6,3035920E-002	-1,495714143087933E-003	1,000000000000000E+000
6,6075906E-002	-1,385395787281786E-003	1,000000000000000E+000
6,9092400E-002	-1,287907256187737E-003	1,000000000000000E+000
7,2146326E-002	-1,195696845634569E-003	1,000000000000000E+000
7,5051472E-002	-1,107810746862935E-003	1,000000000000000E+000
7,8065977E-002	-1,034249072857691E-003	1,000000000000000E+000
8,1112340E-002	-9,669375957733969E-004	1,000000000000000E+000
8,4091797E-002	-8,942326927939542E-004	1,000000000000000E+000
8,7094627E-002	-8,312376431065961E-004	1,000000000000000E+000
9,0083659E-002	-7,751038503305049E-004	1,000000000000000E+000
9,3110897E-002	-7,199101406198498E-004	1,000000000000000E+000
9,6071251E-002	-6,727847024085168E-004	1,000000000000000E+000
9,9081516E-002	-6,228338565352765E-004	1,000000000000000E+000
1,0209709E-001	-5,787633859188224E-004	1,000000000000000E+000
1,0511053E-001	-5,351796336812253E-004	1,000000000000000E+000
1,0807186E-001	-4,972649735593979E-004	1,000000000000000E+000
1,1111830E-001	-4,601123512898368E-004	1,000000000000000E+000
1,1407653E-001	-4,315804480010772E-004	1,000000000000000E+000
1,1711227E-001	-3,960196009548753E-004	1,000000000000000E+000
1,2009174E-001	-3,718510952487215E-004	1,000000000000000E+000
1,2310307E-001	-3,444429263963727E-004	1,000000000000000E+000
1,2603900E-001	-3,176227877590963E-004	1,000000000000000E+000
1,2905350E-001	-2,978760230277198E-004	1,000000000000000E+000
1,3211413E-001	-2,774184173239482E-004	1,000000000000000E+000
1,3506658E-001	-2,630953351952221E-004	1,000000000000000E+000
1,3808852E-001	-2,485640316864806E-004	1,000000000000000E+000
1,4107117E-001	-2,268244975116049E-004	1,000000000000000E+000
1,4405595E-001	-2,101288337577143E-004	1,000000000000000E+000
1,4713079E-001	-2,020410241070554E-004	1,000000000000000E+000
1,5010513E-001	-1,873788179994713E-004	1,000000000000000E+000
1,5304744E-001	-1,734354565786547E-004	1,000000000000000E+000
1,5604179E-001	-1,559767231938698E-004	1,000000000000000E+000
1,5900743E-001	-1,474639436470961E-004	1,000000000000000E+000
1,6206336E-001	-1,356292368933391E-004	1,000000000000000E+000
1,6507788E-001	-1,227536100268148E-004	1,000000000000000E+000
1,6806053E-001	-1,078016981572666E-004	1,000000000000000E+000
1,7107545E-001	-9,617885980463595E-005	1,000000000000000E+000
1,7405236E-001	-8,440087685606388E-005	1,000000000000000E+000
1,7706156E-001	-7,142333982181742E-005	1,000000000000000E+000
1,8007182E-001	-5,869105730002564E-005	1,000000000000000E+000
1,8303004E-001	-4,636907172353303E-005	1,000000000000000E+000
1,8610914E-001	-3,708437800211496E-005	1,000000000000000E+000
1,8902616E-001	-2,792000805129646E-005	1,000000000000000E+000
1,9206400E-001	-1,734105217870974E-005	1,000000000000000E+000
1,9506578E-001	-4,562213092704806E-006	1,000000000000000E+000
1,9800276E-001	4,453531235842289E-006	1,000000000000000E+000
2,0106295E-001	2,357119164545445E-005	1,000000000000000E+000
2,0409547E-001	3,410646944661998E-005	1,000000000000000E+000
2,0705904E-001	4,403131259984323E-005	1,000000000000000E+000
2,1007827E-001	5,942588778636362E-005	1,000000000000000E+000
2,1301372E-001	7,518411482377739E-005	1,000000000000000E+000
2,1601547E-001	9,192849554097709E-005	1,000000000000000E+000
2,1903849E-001	1,038697208443969E-004	1,000000000000000E+000
2,2212733E-001	1,155453016057149E-004	1,000000000000000E+000
2,2504175E-001	1,360590379182672E-004	1,000000000000000E+000
2,2800234E-001	1,464761165817959E-004	1,000000000000000E+000
2,3115170E-001	1,653514811838031E-004	1,000000000000000E+000
2,3404518E-001	1,750907568956550E-004	1,000000000000000E+000
2,3705861E-001	1,883674486561245E-004	1,000000000000000E+000
2,4009967E-001	2,087918971053822E-004	1,000000000000000E+000
2,4302393E-001	2,192566100283201E-004	1,000000000000000E+000
2,4603099E-001	2,357018296462584E-004	1,000000000000000E+000
2,4906826E-001	2,458064203458123E-004	1,000000000000000E+000
2,5211099E-001	2,618716729904996E-004	1,000000000000000E+000
2,5506285E-001	2,736593106396927E-004	1,000000000000000E+000
2,5809538E-001	2,848152696272839E-004	1,000000000000000E+000
2,6103133E-001	2,972164574968029E-004	1,000000000000000E+000
2,6407969E-001	3,104633685750329E-004	1,000000000000000E+000
2,6704124E-001	3,225832131198039E-004	1,000000000000000E+000
2,7007484E-001	3,322405319726822E-004	1,000000000000000E+000
2,7305752E-001	3,411973973455129E-004	1,000000000000000E+000
2,7607095E-001	3,527244484623779E-004	1,000000000000000E+000
2,7903554E-001	3,611333424875102E-004	1,000000000000000E+000
2,8208509E-001	3,720655319023672E-004	1,000000000000000E+000
2,8504014E-001	3,816674855045084E-004	1,000000000000000E+000
2,8802171E-001	3,883867900129909E-004	1,000000000000000E+000
2,9105321E-001	3,935805299633993E-004	1,000000000000000E+000
2,9405499E-001	3,968986676225281E-004	1,000000000000000E+000
2,9703128E-001	4,105456619917913E-004	1,000000000000000E+000
3,0002773E-001	4,080741434837379E-004	1,000000000000000E+000
3,0308989E-001	4,152386642994675E-004	1,000000000000000E+000
3,0606946E-001	4,151038402821685E-004	1,000000000000000E+000
3,0905640E-001	4,182169276627616E-004	1,000000000000000E+000
3,1208685E-001	4,216161505032796E-004	1,000000000000000E+000
3,1504932E-001	4,212585171529080E-004	1,000000000000000E+000
3,1808609E-001	4,176264524289510E-004	1,000000000000000E+000
3,2099018E-001	4,196485341524912E-004	1,000000000000000E+000
3,2408640E-001	4,220986560366817E-004	1,000000000000000E+000
3,2702532E-001	4,197779367842783E-004	1,000000000000000E+000
3,3007193E-001	4,161211707143335E-004	1,000000000000000E+000
3,3305562E-001	4,150006913738991E-004	1,000000000000000E+000
3,3603507E-001	4,172385866827522E-004	1,000000000000000E+000
3,3903790E-001	4,162334005374186E-004	1,000000000000000E+000
3,4203514E-001	4,124192739972171E-004	1,000000000000000E+000
3,4502766E-001	4,182237867541992E-004	1,000000000000000E+000
3,4800926E-001	4,162987744102527E-004	1,000000000000000E+000
3,5106304E-001	4,202555368807617E-004	1,000000000000000E+000
3,5402021E-001	4,219184881679087E-004	1,000000000000000E+000
3,5701349E-001	4,233200235579148E-004	1,000000000000000E+000
3,5998872E-001	4,283990517030701E-004	1,000000000000000E+000
3,6303613E-001	4,266653890507210E-004	1,000000000000000E+000
3,6604559E-001	4,385438057734380E-004	1,000000000000000E+000
3,6903325E-001	4,437608463572738E-004	1,000000000000000E+000
3,7203079E-001	4,484976771167637E-004	1,000000000000000E+000
3,7503153E-001	4,548401724102135E-004	1,000000000000000E+000
3,7799501E-001	4,620545071469469E-004	1,000000000000000E+000
3,8105598E-001	4,703796773646973E-004	1,000000000000000E+000
3,8405591E-001	4,759453243458256E-004	1,000000000000000E+000
3,8708737E-001	4,847903218064050E-004	1,000000000000000E+000
3,9010295E-001	4,896235956274291E-004	1,000000000000000E+000
3,9305583E-001	5,013315102238959E-004	1,000000000000000E+000
3,9605871E-001	5,153998430688840E-004	1,000000000000000E+000
3,9899781E-001	5,222374437383586E-004	1,000000000000000E+000
4,0203565E-001	5,323256445701695E-004	1,000000000000000E+000
4,0499753E-001	5,449497728152643E-004	1,000000000000000E+000
4,0803283E-001	5,634811120078746E-004	1,000000000000000E+000
4,1099638E-001	5,763136246894965E-004	1,000000000000000E+000
4,1402152E-001	5,860453646106632E-004	1,000000000000000E+000
4,1705829E-001	6,057218274598151E-004	1,000000000000000E+000
4,2002931E-001	6,279791722716528E-004	1,000000000000000E+000
4,2307457E-001	6,491411918710666E-004	1,000000000000000E+000
4,2606676E-001	6,750373450399114E-004	1,000000000000000E+000
4,2904419E-001	7,014777837703896E-004	1,000000000000000E+000
4,3208307E-001	7,400103949131214E-004	1,000000000000000E+000
4,3500200E-001	7,842528572430899E-004	1,000000000000000E+000
4,3801859E-001	8,266316951352024E-004	1,000000000000000E+000
4,4106501E-001	8,790224216894404E-004	1,000000000000000E+000
4,4404346E-001	9,390720657644113E-004	1,000000000000000E+000
4,4698149E-001	1,000241867405256E-003	1,000000000000000E+000
4,5004797E-001	1,069716204452039E-003	1,000000000000000E+000
4,5306247E-001	1,145763447433442E-003	1,000000000000000E+000
4,5602071E-001	1,230449794249883E-003	1,000000000000000E+000
4,5905647E-001	1,324431387978963E-003	1,000000000000000E+000
4,6213782E-001	1,418526679080233E-003	1,000000000000000E+000
4,6505895E-001	1,533002385604920E-003	1,000000000000000E+000
4,6813506E-001	1,660018393196627E-003	1,000000000000000E+000
4,7108051E-001	1,816527170306392E-003	1,000000000000000E+000
4,7407481E-001	2,009876286230824E-003	1,000000000000000E+000
4,7699699E-001	2,252604367989280E-003	1,000000000000000E+000
4,8002952E-001	2,564361956012902E-003	1,000000000000000E+000
4,8304942E-001	2,971065096841738E-003	1,000000000000000E+000
4,8606595E-001	3,488788428504388E-003	1,000000000000000E+000
4,8902419E-001	4,144040736323060E-003	1,000000000000000E+000
4,9200472E-001	4,948087822380057E-003	1,000000000000000E+000
4,9499696E-001	5,969089251548820E-003	1,000000000000000E+000
4,9802741E-001	7,259570320729186E-003	1,000000000000000E+000
5,0100362E-001	8,958955311816716E-003	1,000000000000000E+000
5,0413924E-001	1,127498962196031E-002	1,000000000000000E+000
5,0708365E-001	1,393303321846051E-002	1,000000000000000E+000
5,1014060E-001	1,682520653646496E-002	1,000000000000000E+000
5,1311058E-001	1,954624002792515E-002	1,000000000000000E+000
5,1613778E-001	2,211806106277114E-002	1,000000000000000E+000
5,1912260E-001	2,424177976444997E-002	1,000000000000000E+000
5,2214432E-001	2,593505780601069E-002	1,000000000000000E+000
5,2511650E-001	2,734862422531520E-002	1,000000000000000E+000
5,2815223E-001	2,855203347623819E-002	1,000000000000000E+000
5,3107327E-001	2,958867991767611E-002	1,000000000000000E+000
5,3409952E-001	3,048706674196522E-002	1,000000000000000E+000
5,3719455E-001	3,124736609161877E-002	1,000000000000000E+000
5,4008818E-001	3,178790570637989E-002	1,000000000000000E+000
5,4313034E-001	3,205541068241380E-002	1,000000000000000E+000
5,4610121E-001	3,220647657443215E-002	1,000000000000000E+000
5,4914224E-001	3,225861094858239E-002	1,000000000000000E+000
5,5213135E-001	3,248534267667946E-002	1,000000000000000E+000
5,5511928E-001	3,309680190404080E-002	1,000000000000000E+000
5,5812210E-001	3,428650667675519E-002	1,000000000000000E+000
5,6113613E-001	3,615081203855863E-002	1,000000000000000E+000
5,6422651E-001	3,894249598739574E-002	1,000000000000000E+000
5,6711257E-001	4,250938741541987E-002	1,000000000000000E+000
5,7013023E-001	4,704991118193647E-002	1,000000000000000E+000
5,7309484E-001	5,279764223077227E-002	1,000000000000000E+000
5,7612932E-001	5,959523091230869E-002	1,000000000000000E+000
5,7915998E-001	6,760554258656737E-002	1,000000000000000E+000
5,8212775E-001	7,639958845481043E-002	1,000000000000000E+000
5,8514440E-001	8,680547030944626E-002	1,000000000000000E+000
5,8810258E-001	9,824125426494040E-002	1,000000000000000E+000
5,9119248E-001	1,114182651418847E-001	1,000000000000000E+000
5,9417409E-001	1,256176687337781E-001	1,000000000000000E+000
5,9723645E-001	1,415173150218871E-001	1,000000000000000E+000
6,0025346E-001	1,585081517968293E-001	1,000000000000000E+000
6,0319531E-001	1,772888181519927E-001	1,000000000000000E+000
6,0619920E-001	1,981350477529334E-001	1,000000000000000E+000
6,0914898E-001	2,196224761974751E-001	1,000000000000000E+000
6,1218685E-001	2,430029762465331E-001	1,000000000000000E+000
6,1528099E-001	2,695104439576674E-001	1,000000000000000E+000
6,1828274E-001	2,970799195523169E-001	1,000000000000000E+000
6,2121338E-001	3,258842430953894E-001	1,000000000000000E+000
6,2417257E-001	3,587664787482261E-001	1,000000000000000E+000
6,2718505E-001	3,920526324650959E-001	1,000000000000000E+000
6,3023031E-001	4,275480555138151E-001	1,000000000000000E+000
6,3322151E-001	4,663366384829614E-001	1,000000000000000E+000
6,3627213E-001	5,061228781338771E-001	1,000000000000000E+000
6,3923562E-001	5,485302822570055E-001	1,000000000000000E+000
6,4225012E-001	5,936939089206341E-001	1,000000000000000E+000
6,4524341E-001	6,401711605328737E-001	1,000000000000000E+000
6,4816970E-001	6,894457956560636E-001	1,000000000000000E+000
6,5120238E-001	7,415661321965628E-001	1,000000000000000E+000
6,5426552E-001	7,961218065743374E-001	1,000000000000000E+000
6,5723240E-001	8,504707523180226E-001	1,000000000000000E+000
6,6023308E-001	9,092915723873229E-001	1,000000000000000E+000
6,6324335E-001	9,696815540325621E-001	1,000000000000000E+000
6,6622818E-001	1,032940035926651E+000	1,000000000000000E+000
6,6929531E-001	1,099031819794549E+000	1,000000000000000E+000
6,7228478E-001	1,166932699150167E+000	1,000000000000000E+000
6,7529821E-001	1,237795102006655E+000	1,000000000000000E+000
6,7832977E-001	1,308712343248173E+000	1,000000000000000E+000
6,8130815E-001	1,384240731765896E+000	1,000000000000000E+000
6,8425465E-001	1,457851958560358E+000	1,000000000000000E+000
6,8731588E-001	1,533841711112091E+000	1,000000000000000E+000
6,9033468E-001	1,612848311764044E+000	1,000000000000000E+000
6,9333005E-001	1,693599685892815E+000	1,000000000000000E+000
6,9633275E-001	1,774416490155957E+000	1,000000000000000E+000
6,9936007E-001	1,859002335795333E+000	1,000000000000000E+000
7,0235127E-001	1,941302826378887E+000	1,000000000000000E+000
7,0530200E-001	2,028842949120497E+000	1,000000000000000E+000
7,0831436E-001	2,127188702593319E+000	1,000000000000000E+000
7,1130240E-001	2,213136474325275E+000	1,000000000000000E+000
7,1432012E-001	2,297985502043542E+000	1,000000000000000E+000
7,1729958E-001	2,398122311415583E+000	1,000000000000000E+000
7,2029811E-001	2,490093550630029E+000	1,000000000000000E+000
7,2329038E-001	2,587327247844532E+000	1,000000000000000E+000
7,2632289E-001	2,686775408364202E+000	1,000000000000000E+000
7,2928852E-001	2,777282884838634E+000	1,000000000000000E+000
7,3234892E-001	2,882427922678914E+000	1,000000000000000E+000
7,3530912E-001	2,981346962183636E+000	1,000000000000000E+000
7,3828107E-001	3,086148890829271E+000	1,000000000000000E+000
7,4131685E-001	3,189489439298789E+000	1,000000000000000E+000
7,4428147E-001	3,287564771820090E+000	1,000000000000000E+000
7,4727958E-001	3,395924405921008E+000	1,000000000000000E+000
7,5028712E-001	3,498015794286381E+000	1,000000000000000E+000
7,5334942E-001	3,596649014895704E+000	1,000000000000000E+000
7,5636178E-001	3,705849750371527E+000	1,000000000000000E+000
7,5936037E-001	3,819691356550258E+000	1,000000000000000E+000
7,6229948E-001	3,926866111064705E+000	1,000000000000000E+000
7,6531190E-001	4,034925064836500E+000	1,000000000000000E+000
7,6832110E-001	4,144487935500642E+000	1,000000000000000E+000
7,7130586E-001	4,256384214596466E+000	1,000000000000000E+000
7,7434587E-001	4,367549075088263E+000	1,000000000000000E+000
7,7728707E-001	4,475971334746923E+000	1,000000000000000E+000
7,8025907E-001	4,575838072466201E+000	1,000000000000000E+000
7,8330427E-001	4,694193396708854E+000	1,000000000000000E+000
7,8628808E-001	4,806452719498918E+000	1,000000000000000E+000
7,8929090E-001	4,926336224961737E+000	1,000000000000000E+000
7,9226619E-001	5,036359624662623E+000	1,000000000000000E+000
7,9532629E-001	5,152121215551887E+000	1,000000000000000E+000
7,9834718E-001	5,257417144080680E+000	1,000000000000000E+000
8,0128628E-001	5,373258435638292E+000	1,000000000000000E+000
8,0427009E-001	5,481369485491539E+000	1,000000000000000E+000
8,0732590E-001	5,603628432939928E+000	1,000000000000000E+000
8,1031185E-001	5,723324762486235E+000	1,000000000000000E+000
8,1329018E-001	5,827643704759026E+000	1,000000000000000E+000
8,1631947E-001	5,943955815264154E+000	1,000000000000000E+000
8,1927770E-001	6,073445337429620E+000	1,000000000000000E+000
8,2228273E-001	6,186653911661921E+000	1,000000000000000E+000
8,2526219E-001	6,306486794872896E+000	1,000000000000000E+000
8,2830316E-001	6,407697322484864E+000	1,000000000000000E+000
8,3127743E-001	6,536171583969875E+000	1,000000000000000E+000
8,3426356E-001	6,652005084352894E+000	1,000000000000000E+000
8,3727455E-001	6,769146674074022E+000	1,000000000000000E+000
8,4036970E-001	6,886838181083718E+000	1,000000000000000E+000
8,4323239E-001	7,010475365415473E+000	1,000000000000000E+000
8,4628612E-001	7,112961261923907E+000	1,000000000000000E+000
8,4926480E-001	7,253065909149996E+000	1,000000000000000E+000
8,5227913E-001	7,362483209155315E+000	1,000000000000000E+000
8,5538816E-001	7,497884483496918E+000	1,000000000000000E+000
8,5831130E-001	7,599360122296829E+000	1,000000000000000E+000
8,6127383E-001	7,732740205161463E+000	1,000000000000000E+000
8,6424369E-001	7,850040312391812E+000	1,000000000000000E+000
8,6734104E-001	7,974159563209469E+000	1,000000000000000E+000
8,7028867E-001	8,083400801533720E+000	1,000000000000000E+000
8,7332064E-001	8,224452138067718E+000	1,000000000000000E+000
8,7626886E-001	8,344823617378296E+000	1,000000000000000E+000
8,7928861E-001	8,467845752733894E+000	1,000000000000000E+000
8,8230950E-001	8,597918834005071E+000	1,000000000000000E+000
8,8528687E-001	8,738228113134966E+000	1,000000000000000E+000
8,8833714E-001	8,847729743681022E+000	1,000000000000000E+000
8,9128721E-001	8,978350314356078E+000	1,000000000000000E+000
8,9433467E-001	9,082526151960987E+000	1,000000000000000E+000
8,9726526E-001	9,226851709035003E+000	1,000000000000000E+000
9,0030533E-001	9,368755583657702E+000	1,000000000000000E+000
9,0330172E-001	9,481458455594478E+000	1,000000000000000E+000
9,0630770E-001	9,626619048467319E+000	1,000000000000000E+000
9,0930521E-001	9,738056370528099E+000	1,000000000000000E+000
9,1232204E-001	9,882532222330902E+000	1,000000000000000E+000
9,1531825E-001	1,000520255857586E+001	1,000000000000000E+000
9,1826594E-001	1,013555148460159E+001	1,000000000000000E+000
9,2133027E-001	1,023021507648386E+001	1,000000000000000E+000
9,2428750E-001	1,039544768979493E+001	1,000000000000000E+000
9,2734635E-001	1,053791356711585E+001	1,000000000000000E+000
9,3030059E-001	1,065202109715025E+001	1,000000000000000E+000
9,3333310E-001	1,077414579118462E+001	1,000000000000000E+000
9,3633968E-001	1,092224858281563E+001	1,000000000000000E+000
9,3940777E-001	1,104564826362795E+001	1,000000000000000E+000
9,4235224E-001	1,113882320477308E+001	1,000000000000000E+000
9,4534129E-001	1,131730896585930E+001	1,000000000000000E+000
9,4840145E-001	1,146631948727602E+001	1,000000000000000E+000
9,5137227E-001	1,158485322860992E+001	1,000000000000000E+000
9,5436883E-001	1,171223964239738E+001	1,000000000000000E+000
9,5739079E-001	1,184946814841695E+001	1,000000000000000E+000
9,6031827E-001	1,200650263488151E+001	1,000000000000000E+000
9,6336770E-001	1,212861188016251E+001	1,000000000000000E+000
9,6642888E-001	1,225358260815108E+001	1,000000000000000E+000
9,6932667E-001	1,239450170603198E+001	1,000000000000000E+000
9,7239542E-001	1,252107086919597E+001	1,000000000000000E+000
9,7544169E-001	1,266902018971993E+001	1,000000000000000E+000
9,7837657E-001	1,276581545022066E+001	1,000000000000000E+000
9,8133165E-001	1,292320393367157E+001	1,000000000000000E+000
9,8437911E-001	1,307676393253195E+001	1,000000000000000E+000
9,8735112E-001	1,318789529989635E+001	1,000000000000000E+000
9,9035990E-001	1,332156963233305E+001	1,000000000000000E+000
9,9340671E-001	1,343247626549534E+001	1,000000000000000E+000
9,9638075E-001	1,359513888634794E+001	1,000000000000000E+000
9,9932933E-001	1,368925128861957E+001	1,000000000000000E+000
9,9822509E-001	1,356397899504672E+001	1,000000000000000E+000
9,9525315E-001	1,335861694258627E+001	1,000000000000000E+000
9,9227804E-001	1,314564343442184E+001	1,000000000000000E+000
9,8924327E-001	1,294853930503064E+001	1,000000000000000E+000
9,8628503E-001	1,271088283753988E+001	1,000000000000000E+000
9,8320580E-001	1,255461277118343E+001	1,000000000000000E+000
9,8021895E-001	1,233312702564156E+001	1,000000000000000E+000
9,7733819E-001	1,214494041149040E+001	1,000000000000000E+000
9,7423512E-001	1,198555609657433E+001	1,000000000000000E+000
9,7120929E-001	1,181673730703709E+001	1,000000000000000E+000
9,6817464E-001	1,164269539761161E+001	1,000000000000000E+000
9,6526724E-001	1,145322282460273E+001	1,000000000000000E+000
9,6227199E-001	1,127995821874165E+001	1,000000000000000E+000
9,5930552E-001	1,110753472641483E+001	1,000000000000000E+000
9,5623231E-001	1,096620486457063E+001	1,000000000000000E+000
9,5322531E-001	1,079046635028994E+001	1,000000000000000E+000
9,5037109E-001	1,064823737186370E+001	1,000000000000000E+000
9,4724840E-001	1,047897259191586E+001	1,000000000000000E+000
9,4422209E-001	1,032724254174562E+001	1,000000000000000E+000
9,4124579E-001	1,015447976178318E+001	1,000000000000000E+000
9,3823981E-001	1,002380864271505E+001	1,000000000000000E+000
9,3525052E-001	9,869440404500608E+000	1,000000000000000E+000
9,3224168E-001	9,690485856362770E+000	1,000000000000000E+000
9,2923248E-001	9,583157774137021E+000	1,000000000000000E+000
9,2628056E-001	9,437828954317681E+000	1,000000000000000E+000
9,2329144E-001	9,289077115234676E+000	1,000000000000000E+000
9,2026556E-001	9,120328080318572E+000	1,000000000000000E+000
9,1730714E-001	9,014843791858397E+000	1,000000000000000E+000
9,1427028E-001	8,859289815163663E+000	1,000000000000000E+000
9,1126108E-001	8,721244182378513E+000	1,000000000000000E+000
9,0830600E-001	8,605995039820954E+000	1,000000000000000E+000
9,0520018E-001	8,466747300019318E+000	1,000000000000000E+000
9,0227693E-001	8,337911481962706E+000	1,000000000000000E+000
8,9926040E-001	8,210661803175803E+000	1,000000000000000E+000
8,9631248E-001	8,062625824659129E+000	1,000000000000000E+000
8,9326328E-001	7,929704396092120E+000	1,000000000000000E+000
8,9027745E-001	7,811680644345159E+000	1,000000000000000E+000
8,8731384E-001	7,684914757875617E+000	1,000000000000000E+000
8,8421762E-001	7,550101068960572E+000	1,000000000000000E+000
8,8126713E-001	7,425041736832178E+000	1,000000000000000E+000
8,7825871E-001	7,308913608189343E+000	1,000000000000000E+000
8,7526965E-001	7,164114203988277E+000	1,000000000000000E+000
8,7232310E-001	7,065342168621498E+000	1,000000000000000E+000
8,6928535E-001	6,899003221672388E+000	1,000000000000000E+000
8,6626649E-001	6,810027769160627E+000	1,000000000000000E+000
8,6324978E-001	6,671756049402745E+000	1,000000000000000E+000
8,6025977E-001	6,570446645524243E+000	1,000000000000000E+000
8,5718971E-001	6,461042252525459E+000	1,000000000000000E+000
8,5428381E-001	6,329820618878179E+000	1,000000000000000E+000
8,5124600E-001	6,227847555056725E+000	1,000000000000000E+000
8,4825796E-001	6,116823025233629E+000	1,000000000000000E+000
8,4529662E-001	6,008537500116802E+000	1,000000000000000E+000
8,4227282E-001	5,876030787490805E+000	1,000000000000000E+000
8,3925378E-001	5,788390889121843E+000	1,000000000000000E+000
8,3625627E-001	5,666257563057670E+000	1,000000000000000E+000
8,3317804E-001	5,566799580037177E+000	1,000000000000000E+000
8,3025479E-001	5,431310551439552E+000	1,000000000000000E+000
8,2725734E-001	5,354349132500534E+000	1,000000000000000E+000
8,2427680E-001	5,240085658404034E+000	1,000000000000000E+000
8,2126337E-001	5,133807226407288E+000	1,000000000000000E+000
8,1832075E-001	5,017226208892581E+000	1,000000000000000E+000
8,1529063E-001	4,924935237620709E+000	1,000000000000000E+000
8,1228882E-001	4,815747863142107E+000	1,000000000000000E+000
8,0925196E-001	4,717545558603437E+000	1,000000000000000E+000
8,0626202E-001	4,611262243621205E+000	1,000000000000000E+000
8,0324531E-001	4,503497270601144E+000	1,000000000000000E+000
8,0019474E-001	4,417992687076669E+000	1,000000000000000E+000
7,9718554E-001	4,310274532254851E+000	1,000000000000000E+000
7,9425609E-001	4,216301570775300E+000	1,000000000000000E+000
7,9121500E-001	4,114575721407959E+000	1,000000000000000E+000
7,8815478E-001	4,021984006440825E+000	1,000000000000000E+000
7,8522629E-001	3,924923652424025E+000	1,000000000000000E+000
7,8222132E-001	3,816886349532609E+000	1,000000000000000E+000
7,7915370E-001	3,734217937308038E+000	1,000000000000000E+000
7,7619445E-001	3,632848260354016E+000	1,000000000000000E+000
7,7322245E-001	3,548204507552015E+000	1,000000000000000E+000
7,7019304E-001	3,452489422055596E+000	1,000000000000000E+000
7,6715732E-001	3,358623645405658E+000	1,000000000000000E+000
7,6421499E-001	3,263409721709436E+000	1,000000000000000E+000
7,6117074E-001	3,173030102029944E+000	1,000000000000000E+000
7,5824118E-001	3,085949451542234E+000	1,000000000000000E+000
7,5522345E-001	3,001230820427764E+000	1,000000000000000E+000
7,5216758E-001	2,909743641492582E+000	1,000000000000000E+000
7,4919242E-001	2,824737477008583E+000	1,000000000000000E+000
7,4622560E-001	2,732660715356303E+000	1,000000000000000E+000
7,4319625E-001	2,647444076227906E+000	1,000000000000000E+000
7,4019027E-001	2,567084525650181E+000	1,000000000000000E+000
7,3721921E-001	2,481675833142678E+000	1,000000000000000E+000
7,3422492E-001	2,403415880049828E+000	1,000000000000000E+000
7,3123062E-001	2,320134413941788E+000	1,000000000000000E+000
7,2822356E-001	2,239697215390179E+000	1,000000000000000E+000
7,2523242E-001	2,161809174111639E+000	1,000000000000000E+000
7,2215521E-001	2,083167310204370E+000	1,000000000000000E+000
7,1923947E-001	2,001438690336791E+000	1,000000000000000E+000
7,1625894E-001	1,924934122280607E+000	1,000000000000000E+000
7,1321476E-001	1,850206135605333E+000	1,000000000000000E+000
7,1022785E-001	1,778382128379114E+000	1,000000000000000E+000
7,0717400E-001	1,708026075866620E+000	1,000000000000000E+000
7,0417756E-001	1,636686469996334E+000	1,000000000000000E+000
7,0124483E-001	1,567741791929702E+000	1,000000000000000E+000
6,9818991E-001	1,496560292246663E+000	1,000000000000000E+000
6,9526577E-001	1,432628946805416E+000	1,000000000000000E+000
6,9219816E-001	1,367210592331190E+000	1,000000000000000E+000
6,8919855E-001	1,302507624511613E+000	1,000000000000000E+000
6,8620843E-001	1,237219333167183E+000	1,000000000000000E+000
6,8321830E-001	1,175723154089347E+000	1,000000000000000E+000
6,8020695E-001	1,118681432708863E+000	1,000000000000000E+000
6,7722857E-001	1,060476748516336E+000	1,000000000000000E+000
6,7419821E-001	1,003545416261401E+000	1,000000000000000E+000
6,7113483E-001	9,471536888286899E-001	1,000000000000000E+000
6,6817343E-001	8,977651713741235E-001	1,000000000000000E+000
6,6518545E-001	8,415243961085963E-001	1,000000000000000E+000
6,6219330E-001	7,902838723276853E-001	1,000000000000000E+000
6,5922010E-001	7,436801188386775E-001	1,000000000000000E+000
6,5623325E-001	6,933930944904780E-001	1,000000000000000E+000
6,5323460E-001	6,507146978949361E-001	1,000000000000000E+000
6,5019572E-001	6,077013615172457E-001	1,000000000000000E+000
6,4718652E-001	5,655113512696586E-001	1,000000000000000E+000
6,4426547E-001	5,222762891148443E-001	1,000000000000000E+000
6,4124560E-001	4,866869049801430E-001	1,000000000000000E+000
6,3821524E-001	4,511731661171954E-001	1,000000000000000E+000
6,3512212E-001	4,154025506093060E-001	1,000000000000000E+000
6,3209170E-001	3,818895117761958E-001	1,000000000000000E+000
6,2914401E-001	3,519753264664529E-001	1,000000000000000E+000
6,2608391E-001	3,229845529865663E-001	1,000000000000000E+000
6,2309355E-001	2,947990622730332E-001	1,000000000000000E+000
6,2014198E-001	2,680114264390903E-001	1,000000000000000E+000
6,1710835E-001	2,437095923872995E-001	1,000000000000000E+000
6,1412996E-001	2,202815508550189E-001	1,000000000000000E+000
6,1113346E-001	1,992886596847150E-001	1,000000000000000E+000
6,0809118E-001	1,798937348353788E-001	1,000000000000000E+000
6,0515863E-001	1,617843617068484E-001	1,000000000000000E+000
6,0214621E-001	1,449916382043572E-001	1,000000000000000E+000
5,9907335E-001	1,288838509265375E-001	1,000000000000000E+000
5,9615123E-001	1,147055973651527E-001	1,000000000000000E+000
5,9310061E-001	1,014212332011248E-001	1,000000000000000E+000
5,9012753E-001	8,979073332151744E-002	1,000000000000000E+000
5,8710980E-001	7,897546709158265E-002	1,000000000000000E+000
5,8409613E-001	6,902960490155308E-002	1,000000000000000E+000
5,8105958E-001	6,014085862977753E-002	1,000000000000000E+000
5,7814592E-001	5,241431129247354E-002	1,000000000000000E+000
5,7507712E-001	4,531337805917235E-002	1,000000000000000E+000
5,7201076E-001	3,893307982780303E-002	1,000000000000000E+000
5,6901872E-001	3,332876144687646E-002	1,000000000000000E+000
5,6602848E-001	2,856675008984491E-002	1,000000000000000E+000
5,6300229E-001	2,426434614969608E-002	1,000000000000000E+000
5,6003553E-001	2,051538094490679E-002	1,000000000000000E+000
5,5697119E-001	1,726289498057459E-002	1,000000000000000E+000
5,5400759E-001	1,450197501733688E-002	1,000000000000000E+000
5,5103338E-001	1,201295145279668E-002	1,000000000000000E+000
5,4799342E-001	9,900123508482878E-003	1,000000000000000E+000
5,4504550E-001	8,069033768580411E-003	1,000000000000000E+000
5,4199409E-001	6,558541740755958E-003	1,000000000000000E+000
5,3907096E-001	5,195669224439550E-003	1,000000000000000E+000
5,3576237E-001	3,779112749389593E-003	1,000000000000000E+000
5,3280729E-001	2,822268084938243E-003	1,000000000000000E+000
5,2975571E-001	2,029326486583181E-003	1,000000000000000E+000
5,2684093E-001	1,307368856356341E-003	1,000000000000000E+000
5,2380306E-001	6,963280953649741E-004	1,000000000000000E+000
5,2075458E-001	1,780789398193603E-004	1,000000000000000E+000
5,1778996E-001	-2,852536529642246E-004	1,000000000000000E+000
5,1473612E-001	-6,838422992595126E-004	1,000000000000000E+000
5,1186502E-001	-1,032578486385209E-003	1,000000000000000E+000
5,0877613E-001	-1,356893121405767E-003	1,000000000000000E+000
5,0583601E-001	-1,646331048559394E-003	1,000000000000000E+000
5,0270790E-001	-1,912120503981655E-003	1,000000000000000E+000
4,9983782E-001	-2,177784933351971E-003	1,000000000000000E+000
4,9687847E-001	-2,416368829849457E-003	1,000000000000000E+000
4,9383000E-001	-2,679418056280417E-003	1,000000000000000E+000
4,9079964E-001	-2,918618304532650E-003	1,000000000000000E+000
4,8782325E-001	-3,201705526838787E-003	1,000000000000000E+000
4,8478225E-001	-3,491461393258399E-003	1,000000000000000E+000
4,8180595E-001	-3,790461245266661E-003	1,000000000000000E+000
4,7876492E-001	-4,096000019257390E-003	1,000000000000000E+000
4,7579926E-001	-4,496534195771631E-003	1,000000000000000E+000
4,7277093E-001	-4,943112872139430E-003	1,000000000000000E+000
4,6978408E-001	-5,479838870953602E-003	1,000000000000000E+000
4,6679926E-001	-6,151536037986242E-003	1,000000000000000E+000
4,6380171E-001	-6,977385451741071E-003	1,000000000000000E+000
4,6079782E-001	-8,065800797265515E-003	1,000000000000000E+000
4,5777693E-001	-9,407712213294867E-003	1,000000000000000E+000
4,5477629E-001	-1,077038816052547E-002	1,000000000000000E+000
4,5175424E-001	-1,236356515775282E-002	1,000000000000000E+000
4,4872281E-001	-1,402391243938245E-002	1,000000000000000E+000
4,4573915E-001	-1,570343598314240E-002	1,000000000000000E+000
4,4271508E-001	-1,743827518783175E-002	1,000000000000000E+000
4,3979082E-001	-1,906092863850919E-002	1,000000000000000E+000
4,3672428E-001	-2,064045760917849E-002	1,000000000000000E+000
4,3376288E-001	-2,180705336239319E-002	1,000000000000000E+000
4,3074945E-001	-2,220891170505157E-002	1,000000000000000E+000
4,2771792E-001	-2,158636429261039E-002	1,000000000000000E+000
4,2473844E-001	-1,994378676692380E-002	1,000000000000000E+000
4,2172074E-001	-1,764278125575929E-002	1,000000000000000E+000
4,1874877E-001	-1,500012790517619E-002	1,000000000000000E+000
4,1566625E-001	-1,240845996435874E-002	1,000000000000000E+000
4,1272062E-001	-1,011538490088557E-002	1,000000000000000E+000
4,0974766E-001	-8,286259075322655E-003	1,000000000000000E+000
4,0674695E-001	-6,892600710912425E-003	1,000000000000000E+000
4,0372291E-001	-5,860632055779885E-003	1,000000000000000E+000
4,0074235E-001	-5,090653772953979E-003	1,000000000000000E+000
3,9764971E-001	-4,488285386839888E-003	1,000000000000000E+000
3,9452651E-001	-4,017207762333381E-003	1,000000000000000E+000
3,9151832E-001	-3,662183184128896E-003	1,000000000000000E+000
3,8854843E-001	-3,379246600322287E-003	1,000000000000000E+000
3,8549682E-001	-3,148430408618230E-003	1,000000000000000E+000
3,8253644E-001	-2,951365538271938E-003	1,000000000000000E+000
3,7954637E-001	-2,784151454955600E-003	1,000000000000000E+000
3,7649468E-001	-2,634638692875333E-003	1,000000000000000E+000
3,7347686E-001	-2,509096121582999E-003	1,000000000000000E+000
3,7051025E-001	-2,398526118509280E-003	1,000000000000000E+000
3,6751595E-001	-2,299317910492111E-003	1,000000000000000E+000
3,6458850E-001	-2,214044534564710E-003	1,000000000000000E+000
3,6152300E-001	-2,139906939385726E-003	1,000000000000000E+000
3,5848352E-001	-2,065707767718028E-003	1,000000000000000E+000
3,5551840E-001	-2,003662132523051E-003	1,000000000000000E+000
3,5253897E-001	-1,944079431969821E-003	1,000000000000000E+000
3,4954250E-001	-1,889536445434419E-003	1,000000000000000E+000
3,4655240E-001	-1,836533594884192E-003	1,000000000000000E+000
3,4358674E-001	-1,787537322081360E-003	1,000000000000000E+000
3,4047139E-001	-1,747182434959449E-003	1,000000000000000E+000
3,3752272E-001	-1,705405616713309E-003	1,000000000000000E+000
3,3456844E-001	-1,666915687064053E-003	1,000000000000000E+000
3,3151281E-001	-1,638203111423472E-003	1,000000000000000E+000
3,2851103E-001	-1,602144379469955E-003	1,000000000000000E+000
3,2554010E-001	-1,570352018296577E-003	1,000000000000000E+000
3,2254577E-001	-1,540815389677257E-003	1,000000000000000E+000
3,1947640E-001	-1,515054077142662E-003	1,000000000000000E+000
3,1654221E-001	-1,494921215636911E-003	1,000000000000000E+000
3,1354469E-001	-1,469457591378981E-003	1,000000000000000E+000
3,1054291E-001	-1,448451268722020E-003	1,000000000000000E+000
3,0758789E-001	-1,427040253309857E-003	1,000000000000000E+000
3,0451182E-001	-1,401843082019454E-003	1,000000000000000E+000
3,0151960E-001	-1,384055864342003E-003	1,000000000000000E+000
2,9855388E-001	-1,365495134834209E-003	1,000000000000000E+000
2,9551923E-001	-1,348768684753582E-003	1,000000000000000E+000
2,9253337E-001	-1,334490956370798E-003	1,000000000000000E+000
2,8952315E-001	-1,319272714644458E-003	1,000000000000000E+000
2,8652349E-001	-1,303800245299986E-003	1,000000000000000E+000
2,8352171E-001	-1,295695888192539E-003	1,000000000000000E+000
2,8057623E-001	-1,278714636259433E-003	1,000000000000000E+000
2,7753735E-001	-1,270264611192283E-003	1,000000000000000E+000
2,7451220E-001	-1,257863328885864E-003	1,000000000000000E+000
2,7153167E-001	-1,248873339454087E-003	1,000000000000000E+000
2,6859361E-001	-1,239773444793420E-003	1,000000000000000E+000
2,6557907E-001	-1,235629800287897E-003	1,000000000000000E+000
2,6252529E-001	-1,225892232848521E-003	1,000000000000000E+000
2,5950652E-001	-1,219071210077249E-003	1,000000000000000E+000
2,5651965E-001	-1,214157126143679E-003	1,000000000000000E+000
2,5349772E-001	-1,209624546493961E-003	1,000000000000000E+000
2,5051400E-001	-1,204048881981784E-003	1,000000000000000E+000
2,4756746E-001	-1,199113819266729E-003	1,000000000000000E+000
2,4453384E-001	-1,199192477557401E-003	1,000000000000000E+000
2,4152784E-001	-1,199265565129093E-003	1,000000000000000E+000
2,3853032E-001	-1,194460651675069E-003	1,000000000000000E+000
2,3548713E-001	-1,188002169916450E-003	1,000000000000000E+000
2,3253633E-001	-1,187909735433227E-003	1,000000000000000E+000
2,2953244E-001	-1,188703674663073E-003	1,000000000000000E+000
2,2656894E-001	-1,189443824445899E-003	1,000000000000000E+000
2,2347371E-001	-1,181710774065176E-003	1,000000000000000E+000
2,2054520E-001	-1,180590119342808E-003	1,000000000000000E+000
2,1752845E-001	-1,174481032246179E-003	1,000000000000000E+000
2,1449919E-001	-1,171525659288681E-003	1,000000000000000E+000
2,1153672E-001	-1,173490531477400E-003	1,000000000000000E+000
2,0851584E-001	-1,164833580584529E-003	1,000000000000000E+000
2,0552361E-001	-1,165073486016294E-003	1,000000000000000E+000
2,0254524E-001	-1,165505189023527E-003	1,000000000000000E+000
1,9955304E-001	-1,162270122523353E-003	1,000000000000000E+000
1,9650772E-001	-1,157844589840421E-003	1,000000000000000E+000
1,9355588E-001	-1,156288211154325E-003	1,000000000000000E+000
1,9053498E-001	-1,150407160017176E-003	1,000000000000000E+000
1,8754174E-001	-1,147142488024945E-003	1,000000000000000E+000
1,8450916E-001	-1,142766638335894E-003	1,000000000000000E+000
1,8157113E-001	-1,141319890867101E-003	1,000000000000000E+000
1,7853005E-001	-1,135024931779680E-003	1,000000000000000E+000
1,7555165E-001	-1,130786943286034E-003	1,000000000000000E+000
1,7250316E-001	-1,128502098412903E-003	1,000000000000000E+000
1,6948228E-001	-1,121567459344397E-003	1,000000000000000E+000
1,6657503E-001	-1,117562517260313E-003	1,000000000000000E+000
1,6353080E-001	-1,111543287801657E-003	1,000000000000000E+000
1,6051416E-001	-1,107451754117037E-003	1,000000000000000E+000
1,5757506E-001	-1,095710759272030E-003	1,000000000000000E+000
1,5454143E-001	-1,092209581469116E-003	1,000000000000000E+000
1,5156938E-001	-1,083253965434714E-003	1,000000000000000E+000
1,4851347E-001	-1,076948927517633E-003	1,000000000000000E+000
1,4553718E-001	-1,072261869967304E-003	1,000000000000000E+000
1,4257047E-001	-1,059081622162068E-003	1,000000000000000E+000
1,3953692E-001	-1,053578432357975E-003	1,000000000000000E+000
1,3652872E-001	-1,046716266034795E-003	1,000000000000000E+000
1,3349402E-001	-1,040449730340559E-003	1,000000000000000E+000
1,3058674E-001	-1,037823291004568E-003	1,000000000000000E+000
1,2753828E-001	-1,028106454665795E-003	1,000000000000000E+000
1,2454715E-001	-1,021564013140948E-003	1,000000000000000E+000
1,2153264E-001	-1,015435186402961E-003	1,000000000000000E+000
1,1853725E-001	-1,005793071327591E-003	1,000000000000000E+000
1,1551636E-001	-1,004472000426988E-003	1,000000000000000E+000
1,1257937E-001	-9,947267464828560E-004	1,000000000000000E+000
1,0952771E-001	-9,860682408366316E-004	1,000000000000000E+000
1,0658009E-001	-9,822702335041036E-004	1,000000000000000E+000
1,0356133E-001	-9,763577830708596E-004	1,000000000000000E+000
1,0056179E-001	-9,691767660873910E-004	1,000000000000000E+000
9,7505771E-002	-9,656783536837726E-004	1,000000000000000E+000
9,4559222E-002	-9,607103475939866E-004	1,000000000000000E+000
9,1604188E-002	-9,573593374388309E-004	1,000000000000000E+000
8,8569492E-002	-9,525107918488662E-004	1,000000000000000E+000
8,5634626E-002	-9,477456473767701E-004	1,000000000000000E+000
8,2557470E-002	-9,474286126531038E-004	1,000000000000000E+000
7,9551458E-002	-9,385332481307625E-004	1,000000000000000E+000
7,6582618E-002	-9,382930352746649E-004	1,000000000000000E+000
7,3584028E-002	-9,360757838690337E-004	1,000000000000000E+000
7,0569538E-002	-9,357768798583174E-004	1,000000000000000E+000
6,7567758E-002	-9,314471742842070E-004	1,000000000000000E+000
6,4550072E-002	-9,364304972381970E-004	1,000000000000000E+000
6,1574887E-002	-9,332003548956103E-004	1,000000000000000E+000
5,8548670E-002	-9,335529361198178E-004	1,000000000000000E+000
5,5622291E-002	-9,344572194210704E-004	1,000000000000000E+000
5,2612029E-002	-9,368585863135743E-004	1,000000000000000E+000
4,9599644E-002	-9,355725875415284E-004	1,000000000000000E+000
4,6503384E-002	-9,458018270412406E-004	1,000000000000000E+000
4,3557893E-002	-9,433670427643343E-004	1,000000000000000E+000
4,0629398E-002	-9,497257469981151E-004	1,000000000000000E+000
3,7560735E-002	-9,500192522922807E-004	1,000000000000000E+000
3,4598257E-002	-9,608069214948880E-004	1,000000000000000E+000
3,1584818E-002	-9,676035897634165E-004	1,000000000000000E+000
2,8538454E-002	-9,667712334938648E-004	1,000000000000000E+000
2,5587656E-002	-9,771723662548130E-004	1,000000000000000E+000
2,2561595E-002	-9,829421402840349E-004	1,000000000000000E+000
1,9494936E-002	-9,974304004011373E-004	1,000000000000000E+000
1,6605724E-002	-1,004929149800819E-003	1,000000000000000E+000
1,3588032E-002	-1,015972132515600E-003	1,000000000000000E+000
1,0532114E-002	-1,029369991154285E-003	1,000000000000000E+000
7,5632669E-003	-1,038442797012283E-003	1,000000000000000E+000
4,5009777E-003	-1,042139485991578E-003	1,000000000000000E+000
1,5310678E-003	-1,060393891612275E-003	1,000000000000000E+000
-3,0481862E-004	-1,070635995882401E-003	1,000000000000000E+000