File: fig_4_nife_ceo2/Activity_1_CV/Ni100_Activity_1_CV_1_02_CV_C01.txt
Ewe/V	<I>/mA	cycle number
1,6860453E-004	-1,284633040428162E+000	1,000000000000000E+000
2,9601287E-003	-2,487093194656053E-001	1,000000000000000E+000
5,9424434E-003	-1,506168832986694E-001	1,000000000000000E+000
8,9349886E-003	-1,106310373820500E-001	1,000000000000000E+000
1,1984535E-002	-8,810105215802452E-002	1,000000000000000E+000
1,4954446E-002	-7,328077551936241E-002	1,000000000000000E+000
1,7976385E-002	-6,287206098798437E-002	1,000000000000000E+000
2,0884845E-002	-5,500729506104707E-002	1,000000000000000E+000
2,4010705E-002	-4,887322711260968E-002	1,000000000000000E+000
2,7152630E-002	-4,355037832857600E-002	1,000000000000000E+000
3,0151209E-002	-3,949426776964998E-002	1,000000000000000E+000
3,3152971E-002	-3,611707798751229E-002	1,000000000000000E+000
3,6162172E-002	-3,321408898788217E-002	1,000000000000000E+000
3,9184112E-002	-3,071608323294495E-002	1,000000000000000E+000
4,2147648E-002	-2,853366085687176E-002	1,000000000000000E+000
4,5171715E-002	-2,663089831194987E-002	1,000000000000000E+000
4,8152238E-002	-2,490397612933826E-002	1,000000000000000E+000
5,1182669E-002	-2,339592878033614E-002	1,000000000000000E+000
5,4143034E-002	-2,199559198212514E-002	1,000000000000000E+000
5,7160515E-002	-2,077349146082413E-002	1,000000000000000E+000
6,0137004E-002	-1,965656885974919E-002	1,000000000000000E+000
6,3183360E-002	-1,862623862346191E-002	1,000000000000000E+000
6,6167071E-002	-1,766220844588865E-002	1,000000000000000E+000
6,9109373E-002	-1,680537297384066E-002	1,000000000000000E+000
7,2153896E-002	-1,600384839127517E-002	1,000000000000000E+000
7,5165994E-002	-1,524617379600426E-002	1,000000000000000E+000
7,8129537E-002	-1,454957901915141E-002	1,000000000000000E+000
8,1173778E-002	-1,389623204572976E-002	1,000000000000000E+000
8,4148996E-002	-1,328435970949177E-002	1,000000000000000E+000
8,7174125E-002	-1,271793856974499E-002	1,000000000000000E+000
9,0201378E-002	-1,218482384479565E-002	1,000000000000000E+000
9,3124561E-002	-1,169086597390502E-002	1,000000000000000E+000
9,6199587E-002	-1,120671306635412E-002	1,000000000000000E+000
9,9152505E-002	-1,075018939128950E-002	1,000000000000000E+000
1,0213940E-001	-1,031974238105162E-002	1,000000000000000E+000
1,0519957E-001	-9,910336806483191E-003	1,000000000000000E+000
1,0812343E-001	-9,534599210575315E-003	1,000000000000000E+000
1,1116063E-001	-9,159226890214074E-003	1,000000000000000E+000
1,1411355E-001	-8,796325827739680E-003	1,000000000000000E+000
1,1712592E-001	-8,459998074353478E-003	1,000000000000000E+000
1,2011708E-001	-8,137628212167250E-003	1,000000000000000E+000
1,2315498E-001	-7,834446774404577E-003	1,000000000000000E+000
1,2612273E-001	-7,541146868184662E-003	1,000000000000000E+000
1,2918289E-001	-7,242259223189926E-003	1,000000000000000E+000
1,3212626E-001	-6,974105672979940E-003	1,000000000000000E+000
1,3515139E-001	-6,718613504846066E-003	1,000000000000000E+000
1,3811703E-001	-6,464471397038013E-003	1,000000000000000E+000
1,4116660E-001	-6,229427303773613E-003	1,000000000000000E+000
1,4415564E-001	-5,987355170728972E-003	1,000000000000000E+000
1,4705226E-001	-5,768780166563323E-003	1,000000000000000E+000
1,5016234E-001	-5,559551415942769E-003	1,000000000000000E+000
1,5311737E-001	-5,350233120359371E-003	1,000000000000000E+000
1,5618391E-001	-5,155264256439432E-003	1,000000000000000E+000
1,5919597E-001	-4,962003256414591E-003	1,000000000000000E+000
1,6212903E-001	-4,778734012645489E-003	1,000000000000000E+000
1,6516477E-001	-4,588031077355156E-003	1,000000000000000E+000
1,6824088E-001	-4,555231543415458E-003	1,000000000000000E+000
1,7125645E-001	-4,373030224062654E-003	1,000000000000000E+000
1,7424569E-001	-4,221158128913018E-003	1,000000000000000E+000
1,7726634E-001	-4,052189538503996E-003	1,000000000000000E+000
1,8021607E-001	-3,898754247057450E-003	1,000000000000000E+000
1,8329430E-001	-3,756750985717899E-003	1,000000000000000E+000
1,8622597E-001	-3,608506477165749E-003	1,000000000000000E+000
1,8932967E-001	-3,489418871786023E-003	1,000000000000000E+000
1,9222528E-001	-3,352815358579578E-003	1,000000000000000E+000
1,9524932E-001	-3,204916966770187E-003	1,000000000000000E+000
1,9822773E-001	-3,096062565519898E-003	1,000000000000000E+000
2,0124756E-001	-2,968812367959101E-003	1,000000000000000E+000
2,0423654E-001	-2,854391326256686E-003	1,000000000000000E+000
2,0723088E-001	-2,736692655995368E-003	1,000000000000000E+000
2,1031816E-001	-2,629466810750590E-003	1,000000000000000E+000
2,1321534E-001	-2,523275074029501E-003	1,000000000000000E+000
2,1626699E-001	-2,418276385442842E-003	1,000000000000000E+000
2,1922201E-001	-2,329547034960355E-003	1,000000000000000E+000
2,2222272E-001	-2,227485904312630E-003	1,000000000000000E+000
2,2523184E-001	-2,132605724012540E-003	1,000000000000000E+000
2,2825812E-001	-2,036555950977847E-003	1,000000000000000E+000
2,3126942E-001	-1,947300028933110E-003	1,000000000000000E+000
2,3424464E-001	-1,865662499990230E-003	1,000000000000000E+000
2,3724963E-001	-1,784519016208283E-003	1,000000000000000E+000
2,4024640E-001	-1,709252762952054E-003	1,000000000000000E+000
2,4326800E-001	-1,634373602832463E-003	1,000000000000000E+000
2,4630481E-001	-1,549524992723927E-003	1,000000000000000E+000
2,4922693E-001	-1,487935895539168E-003	1,000000000000000E+000
2,5223932E-001	-1,411755313399765E-003	1,000000000000000E+000
2,5522408E-001	-1,353313182780581E-003	1,000000000000000E+000
2,5821736E-001	-1,284885930938896E-003	1,000000000000000E+000
2,6125309E-001	-1,219399706702731E-003	1,000000000000000E+000
2,6426548E-001	-1,169544303665463E-003	1,000000000000000E+000
2,6725662E-001	-1,103958334860758E-003	1,000000000000000E+000
2,7023503E-001	-1,049693058807956E-003	1,000000000000000E+000
2,7327821E-001	-9,916761408190686E-004	1,000000000000000E+000
2,7620566E-001	-9,398326997500789E-004	1,000000000000000E+000
2,7919784E-001	-8,926698758835519E-004	1,000000000000000E+000
2,8228033E-001	-8,311139113886673E-004	1,000000000000000E+000
2,8523004E-001	-8,020300709077836E-004	1,000000000000000E+000
2,8822756E-001	-7,459104817702563E-004	1,000000000000000E+000
2,9122016E-001	-7,017169056620885E-004	1,000000000000000E+000
2,9424280E-001	-6,612473469868496E-004	1,000000000000000E+000
2,9723498E-001	-6,112391771928155E-004	1,000000000000000E+000
3,0021235E-001	-5,801547707993695E-004	1,000000000000000E+000
3,0320561E-001	-5,341029570044092E-004	1,000000000000000E+000
3,0623502E-001	-5,057454529302143E-004	1,000000000000000E+000
3,0917305E-001	-4,664652152785347E-004	1,000000000000000E+000
3,1227463E-001	-4,260564758789492E-004	1,000000000000000E+000
3,1522858E-001	-3,954817500352523E-004	1,000000000000000E+000
3,1821868E-001	-3,534785450043671E-004	1,000000000000000E+000
3,2123107E-001	-3,344061544263319E-004	1,000000000000000E+000
3,2419667E-001	-2,945736712147810E-004	1,000000000000000E+000
3,2719821E-001	-2,560765447980479E-004	1,000000000000000E+000
3,3021721E-001	-2,345353164593189E-004	1,000000000000000E+000
3,3325192E-001	-1,984508035602446E-004	1,000000000000000E+000
3,3619848E-001	-1,771114812015770E-004	1,000000000000000E+000
3,3916414E-001	-1,424581432582670E-004	1,000000000000000E+000
3,4217477E-001	-1,205292686262513E-004	1,000000000000000E+000
3,4525689E-001	-8,039647984957874E-005	1,000000000000000E+000
3,4820977E-001	-4,474343777853074E-005	1,000000000000000E+000
3,5119453E-001	-2,854491866276551E-005	1,000000000000000E+000
3,5418040E-001	1,017638163949304E-005	1,000000000000000E+000
3,5721084E-001	3,565369211115026E-005	1,000000000000000E+000
3,6022109E-001	6,870410796678606E-005	1,000000000000000E+000
3,6315548E-001	9,980630306321290E-005	1,000000000000000E+000
3,6613438E-001	1,215072081953770E-004	1,000000000000000E+000
3,6921683E-001	1,615027107463322E-004	1,000000000000000E+000
3,7224197E-001	1,854540718795503E-004	1,000000000000000E+000
3,7515131E-001	2,200502608935664E-004	1,000000000000000E+000
3,7816679E-001	2,566673994229786E-004	1,000000000000000E+000
3,8113362E-001	2,858964070894584E-004	1,000000000000000E+000
3,8419703E-001	3,207540691884398E-004	1,000000000000000E+000
3,8719872E-001	3,543273657015730E-004	1,000000000000000E+000
3,9017713E-001	3,903743323448894E-004	1,000000000000000E+000
3,9313567E-001	4,272294928000537E-004	1,000000000000000E+000
3,9618704E-001	4,603697294264728E-004	1,000000000000000E+000
3,9920041E-001	5,128882465651918E-004	1,000000000000000E+000
4,0220541E-001	5,432280536101235E-004	1,000000000000000E+000
4,0517637E-001	5,898187073873082E-004	1,000000000000000E+000
4,0814951E-001	6,247900702519432E-004	1,000000000000000E+000
4,1117990E-001	6,766712871046771E-004	1,000000000000000E+000
4,1419658E-001	7,280591443244930E-004	1,000000000000000E+000
4,1718131E-001	7,673504559061912E-004	1,000000000000000E+000
4,2016718E-001	8,284556999916242E-004	1,000000000000000E+000
4,2320076E-001	8,864856472159972E-004	1,000000000000000E+000
4,2620999E-001	9,610304090665184E-004	1,000000000000000E+000
4,2914671E-001	1,054781700610612E-003	1,000000000000000E+000
4,3221352E-001	1,156343698465033E-003	1,000000000000000E+000
4,3517384E-001	1,300646446527724E-003	1,000000000000000E+000
4,3825740E-001	1,460519642871055E-003	1,000000000000000E+000
4,4117317E-001	1,683939317964744E-003	1,000000000000000E+000
4,4417918E-001	1,969517903483779E-003	1,000000000000000E+000
4,4713953E-001	2,371656666413452E-003	1,000000000000000E+000
4,5019016E-001	2,902046204388192E-003	1,000000000000000E+000
4,5310801E-001	3,605791531720193E-003	1,000000000000000E+000
4,5613414E-001	4,497078636112331E-003	1,000000000000000E+000
4,5918375E-001	5,586786306837531E-003	1,000000000000000E+000
4,6223858E-001	6,858720705681304E-003	1,000000000000000E+000
4,6516284E-001	8,288175075910550E-003	1,000000000000000E+000
4,6829525E-001	1,020267317185070E-002	1,000000000000000E+000
4,7130126E-001	1,189971753324021E-002	1,000000000000000E+000
4,7434542E-001	1,371887719280844E-002	1,000000000000000E+000
4,7739717E-001	1,561417823560782E-002	1,000000000000000E+000
4,8026574E-001	1,756733485819985E-002	1,000000000000000E+000
4,8329559E-001	1,961422704918891E-002	1,000000000000000E+000
4,8628032E-001	2,169775836805388E-002	1,000000000000000E+000
4,8934582E-001	2,379616240080129E-002	1,000000000000000E+000
4,9225089E-001	2,591798902101727E-002	1,000000000000000E+000
4,9529859E-001	2,807898236484152E-002	1,000000000000000E+000
4,9834472E-001	3,028109362940223E-002	1,000000000000000E+000
5,0130290E-001	3,252257513861190E-002	1,000000000000000E+000
5,0431955E-001	3,483673501173723E-002	1,000000000000000E+000
5,0735110E-001	3,726066559418001E-002	1,000000000000000E+000
5,1027215E-001	3,986049174320216E-002	1,000000000000000E+000
5,1328027E-001	4,261442190358228E-002	1,000000000000000E+000
5,1629579E-001	4,534242549159306E-002	1,000000000000000E+000
5,1926148E-001	4,796526184629710E-002	1,000000000000000E+000
5,2230895E-001	5,055201696833844E-002	1,000000000000000E+000
5,2533937E-001	5,317422237285252E-002	1,000000000000000E+000
5,2824557E-001	5,586961021672188E-002	1,000000000000000E+000
5,3132218E-001	5,863110952018025E-002	1,000000000000000E+000
5,3433293E-001	6,149385679595587E-002	1,000000000000000E+000
5,3729755E-001	6,434308587047621E-002	1,000000000000000E+000
5,4035348E-001	6,715686772390372E-002	1,000000000000000E+000
5,4329365E-001	6,975036892087488E-002	1,000000000000000E+000
5,4634219E-001	7,234782602973944E-002	1,000000000000000E+000
5,4931426E-001	7,494948252501255E-002	1,000000000000000E+000
5,5233300E-001	7,770676372040586E-002	1,000000000000000E+000
5,5528057E-001	8,090606312396309E-002	1,000000000000000E+000
5,5824304E-001	8,462677710814193E-002	1,000000000000000E+000
5,6131917E-001	8,903198881452767E-002	1,000000000000000E+000
5,6436336E-001	9,449541631266650E-002	1,000000000000000E+000
5,6734812E-001	1,013636754291417E-001	1,000000000000000E+000
5,7030123E-001	1,087000261864355E-001	1,000000000000000E+000
5,7340688E-001	1,175810574108307E-001	1,000000000000000E+000
5,7649040E-001	1,281635418255509E-001	1,000000000000000E+000
5,7944334E-001	1,389582902868868E-001	1,000000000000000E+000
5,8238417E-001	1,509157618859249E-001	1,000000000000000E+000
5,8536506E-001	1,648721222379272E-001	1,000000000000000E+000
5,8835727E-001	1,796430804251429E-001	1,000000000000000E+000
5,9140581E-001	1,939612934344747E-001	1,000000000000000E+000
5,9448397E-001	2,099475462977969E-001	1,000000000000000E+000
5,9737349E-001	2,287300857909285E-001	1,000000000000000E+000
6,0047269E-001	2,468075925978472E-001	1,000000000000000E+000
6,0340118E-001	2,667669459201747E-001	1,000000000000000E+000
6,0637748E-001	2,878791142863277E-001	1,000000000000000E+000
6,0937923E-001	3,082712660533069E-001	1,000000000000000E+000
6,1243302E-001	3,343451954276544E-001	1,000000000000000E+000
6,1537850E-001	3,567784296838639E-001	1,000000000000000E+000
6,1838031E-001	3,817709194635643E-001	1,000000000000000E+000
6,2143940E-001	4,086155737465154E-001	1,000000000000000E+000
6,2435722E-001	4,348143180473265E-001	1,000000000000000E+000
6,2737483E-001	4,632153322713233E-001	1,000000000000000E+000
6,3032573E-001	4,932404514317699E-001	1,000000000000000E+000
6,3344926E-001	5,241047910951639E-001	1,000000000000000E+000
6,3635266E-001	5,588299073194456E-001	1,000000000000000E+000
6,3941485E-001	5,919247168473172E-001	1,000000000000000E+000
6,4239436E-001	6,262950284486792E-001	1,000000000000000E+000
6,4544708E-001	6,639543892879072E-001	1,000000000000000E+000
6,4832276E-001	7,001243051625856E-001	1,000000000000000E+000
6,5138584E-001	7,335175461898125E-001	1,000000000000000E+000
6,5433240E-001	7,763329781211767E-001	1,000000000000000E+000
6,5740746E-001	8,184769617017684E-001	1,000000000000000E+000
6,6034657E-001	8,605290311652656E-001	1,000000000000000E+000
6,6338611E-001	9,061891037149721E-001	1,000000000000000E+000
6,6640955E-001	9,476879841210895E-001	1,000000000000000E+000
6,6937947E-001	9,954364183453874E-001	1,000000000000000E+000
6,7236006E-001	1,043394405175160E+000	1,000000000000000E+000
6,7544419E-001	1,094599878790529E+000	1,000000000000000E+000
6,7849207E-001	1,143893203117340E+000	1,000000000000000E+000
6,8150759E-001	1,197494034864465E+000	1,000000000000000E+000
6,8445075E-001	1,251990333407564E+000	1,000000000000000E+000
6,8748772E-001	1,304628573197558E+000	1,000000000000000E+000
6,9050229E-001	1,361491074274522E+000	1,000000000000000E+000
6,9347858E-001	1,426703439472142E+000	1,000000000000000E+000
6,9643891E-001	1,479515293676430E+000	1,000000000000000E+000
6,9950992E-001	1,544804674866626E+000	1,000000000000000E+000
7,0245308E-001	1,602591085900251E+000	1,000000000000000E+000
7,0547605E-001	1,667872962666479E+000	1,000000000000000E+000
7,0848525E-001	1,728339470500572E+000	1,000000000000000E+000
7,1150506E-001	1,795620732516248E+000	1,000000000000000E+000
7,1451217E-001	1,860322774858844E+000	1,000000000000000E+000
7,1751177E-001	1,923842861099573E+000	1,000000000000000E+000
7,2048479E-001	1,987947174937140E+000	1,000000000000000E+000
7,2345054E-001	2,063885883105048E+000	1,000000000000000E+000
7,2654891E-001	2,135786719451289E+000	1,000000000000000E+000
7,2953469E-001	2,205123112129378E+000	1,000000000000000E+000
7,3248446E-001	2,267736117247814E+000	1,000000000000000E+000
7,3549700E-001	2,347453364519179E+000	1,000000000000000E+000
7,3858672E-001	2,424686213739886E+000	1,000000000000000E+000
7,4148130E-001	2,506927676752312E+000	1,000000000000000E+000
7,4451697E-001	2,580761265896619E+000	1,000000000000000E+000
7,4748057E-001	2,653688354726000E+000	1,000000000000000E+000
7,5054300E-001	2,726695291316860E+000	1,000000000000000E+000
7,5346929E-001	2,812381424584217E+000	1,000000000000000E+000
7,5650185E-001	2,894986718639650E+000	1,000000000000000E+000
7,5943559E-001	2,973386905073724E+000	1,000000000000000E+000
7,6251906E-001	3,053325982067449E+000	1,000000000000000E+000
7,6544058E-001	3,136209158053276E+000	1,000000000000000E+000
7,6846641E-001	3,214936157168985E+000	1,000000000000000E+000
7,7148825E-001	3,304812903577236E+000	1,000000000000000E+000
7,7452618E-001	3,392983216581158E+000	1,000000000000000E+000
7,7745253E-001	3,481567720538365E+000	1,000000000000000E+000
7,8045112E-001	3,561383119989145E+000	1,000000000000000E+000
7,8350067E-001	3,651405267096415E+000	1,000000000000000E+000
7,8642023E-001	3,727935818527639E+000	1,000000000000000E+000
7,8947663E-001	3,825177806507703E+000	1,000000000000000E+000
7,9249954E-001	3,912040904772507E+000	1,000000000000000E+000
7,9552358E-001	3,997004012908787E+000	1,000000000000000E+000
7,9846483E-001	4,090667124068929E+000	1,000000000000000E+000
8,0148137E-001	4,182954440325958E+000	1,000000000000000E+000
8,0448753E-001	4,279459032916435E+000	1,000000000000000E+000
8,0746907E-001	4,354261037545150E+000	1,000000000000000E+000
8,1051862E-001	4,455343332792090E+000	1,000000000000000E+000
8,1347901E-001	4,542356937346558E+000	1,000000000000000E+000
8,1646276E-001	4,631428322948395E+000	1,000000000000000E+000
8,1949002E-001	4,716882157116231E+000	1,000000000000000E+000
8,2251197E-001	4,821040237064835E+000	1,000000000000000E+000
8,2544255E-001	4,909427718037662E+000	1,000000000000000E+000
8,2845491E-001	5,015335448407285E+000	1,000000000000000E+000
8,3139616E-001	5,092582213905656E+000	1,000000000000000E+000
8,3448398E-001	5,185091488958740E+000	1,000000000000000E+000
8,3745807E-001	5,285943173091709E+000	1,000000000000000E+000
8,4047371E-001	5,373409380819524E+000	1,000000000000000E+000
8,4349239E-001	5,462065310468773E+000	1,000000000000000E+000
8,4650797E-001	5,567157633450549E+000	1,000000000000000E+000
8,4944922E-001	5,671993706975101E+000	1,000000000000000E+000
8,5249454E-001	5,751797044256904E+000	1,000000000000000E+000
8,5548139E-001	5,868168876825283E+000	1,000000000000000E+000
8,5850126E-001	5,947364691366140E+000	1,000000000000000E+000
8,6148918E-001	6,043813529299754E+000	1,000000000000000E+000
8,6444634E-001	6,143952359417929E+000	1,000000000000000E+000
8,6746949E-001	6,249942275778533E+000	1,000000000000000E+000
8,7047541E-001	6,359630868345704E+000	1,000000000000000E+000
8,7345064E-001	6,432291787497860E+000	1,000000000000000E+000
8,7647259E-001	6,561053010206393E+000	1,000000000000000E+000
8,7944460E-001	6,644607856362853E+000	1,000000000000000E+000
8,8246584E-001	6,767081115492317E+000	1,000000000000000E+000
8,8547146E-001	6,863609266862316E+000	1,000000000000000E+000
8,8847536E-001	6,994924730995052E+000	1,000000000000000E+000
8,9144957E-001	7,076194038939860E+000	1,000000000000000E+000
8,9445555E-001	7,181562816137117E+000	1,000000000000000E+000
8,9750081E-001	7,269267925532240E+000	1,000000000000000E+000
9,0051633E-001	7,398881328822270E+000	1,000000000000000E+000
9,0346354E-001	7,506107114275864E+000	1,000000000000000E+000
9,0647531E-001	7,602486857819173E+000	1,000000000000000E+000
9,0945572E-001	7,714308365199571E+000	1,000000000000000E+000
9,1249579E-001	7,806789065840050E+000	1,000000000000000E+000
9,1545409E-001	7,950465465957066E+000	1,000000000000000E+000
9,1848439E-001	8,050448680008060E+000	1,000000000000000E+000
9,2145759E-001	8,143105235837737E+000	1,000000000000000E+000
9,2449546E-001	8,260768631823737E+000	1,000000000000000E+000
9,2744625E-001	8,289039446247941E+000	1,000000000000000E+000
9,3044811E-001	8,476511310017315E+000	1,000000000000000E+000
9,3346035E-001	8,600622415126352E+000	1,000000000000000E+000
9,3648446E-001	8,679226820025580E+000	1,000000000000000E+000
9,3947244E-001	8,792233516231917E+000	1,000000000000000E+000
9,4239563E-001	8,884922023735861E+000	1,000000000000000E+000
9,4544518E-001	9,020996176534247E+000	1,000000000000000E+000
9,4847989E-001	9,097850848825672E+000	1,000000000000000E+000
9,5146674E-001	9,217808634177899E+000	1,000000000000000E+000
9,5446533E-001	9,343556140150355E+000	1,000000000000000E+000
9,5749575E-001	9,417912520113482E+000	1,000000000000000E+000
9,6044117E-001	9,542460188911576E+000	1,000000000000000E+000
9,6344304E-001	9,662958768760262E+000	1,000000000000000E+000
9,6649992E-001	9,713775334512292E+000	1,000000000000000E+000
9,6940196E-001	9,865440079184225E+000	1,000000000000000E+000
9,7245044E-001	9,980346509929149E+000	1,000000000000000E+000
9,7543311E-001	1,000969718548718E+001	1,000000000000000E+000
9,7842640E-001	1,014669352296798E+001	1,000000000000000E+000
9,8149085E-001	1,026021257684883E+001	1,000000000000000E+000
9,8445767E-001	1,032267080086149E+001	1,000000000000000E+000
9,8747206E-001	1,043816684987270E+001	1,000000000000000E+000
9,9045998E-001	1,056215888329371E+001	1,000000000000000E+000
9,9343842E-001	1,066479096647832E+001	1,000000000000000E+000
9,9646246E-001	1,074150563847449E+001	1,000000000000000E+000
9,9937946E-001	1,086615780717079E+001	1,000000000000000E+000
9,9827915E-001	1,072060957055425E+001	1,000000000000000E+000
9,9530190E-001	1,053325201385150E+001	1,000000000000000E+000
9,9230975E-001	1,033034532153960E+001	1,000000000000000E+000
9,8926973E-001	1,013938806434066E+001	1,000000000000000E+000
9,8627532E-001	9,975424755389984E+000	1,000000000000000E+000
9,8325026E-001	9,773352923374375E+000	1,000000000000000E+000
9,8023361E-001	9,651171058957004E+000	1,000000000000000E+000
9,7730875E-001	9,511932481213414E+000	1,000000000000000E+000
9,7428834E-001	9,372224654672905E+000	1,000000000000000E+000
9,7125596E-001	9,211248359847769E+000	1,000000000000000E+000
9,6828383E-001	9,067785544798227E+000	1,000000000000000E+000
9,6525872E-001	8,965434964281627E+000	1,000000000000000E+000
9,6226335E-001	8,809684934074156E+000	1,000000000000000E+000
9,5929563E-001	8,676716020723617E+000	1,000000000000000E+000
9,5624596E-001	8,529805421558962E+000	1,000000000000000E+000
9,5324749E-001	8,432015420087605E+000	1,000000000000000E+000
9,5027006E-001	8,312312285240566E+000	1,000000000000000E+000
9,4729912E-001	8,194555054784104E+000	1,000000000000000E+000
9,4426543E-001	8,061344831506119E+000	1,000000000000000E+000
9,4122440E-001	7,949216899890757E+000	1,000000000000000E+000
9,3829376E-001	7,832108944654461E+000	1,000000000000000E+000
9,3530267E-001	7,726396735022661E+000	1,000000000000000E+000
9,3219471E-001	7,617533287561400E+000	1,000000000000000E+000
9,2921418E-001	7,503819175655877E+000	1,000000000000000E+000
9,2632103E-001	7,375301606796697E+000	1,000000000000000E+000
9,2324787E-001	7,278969583530255E+000	1,000000000000000E+000
9,2022693E-001	7,172424510628218E+000	1,000000000000000E+000
9,1723794E-001	7,057630820879865E+000	1,000000000000000E+000
9,1424149E-001	6,964437657540628E+000	1,000000000000000E+000
9,1125119E-001	6,865679610039436E+000	1,000000000000000E+000
9,0823364E-001	6,764430240371084E+000	1,000000000000000E+000
9,0527439E-001	6,652254978275082E+000	1,000000000000000E+000
9,0223968E-001	6,539340889034925E+000	1,000000000000000E+000
8,9932287E-001	6,444573466266903E+000	1,000000000000000E+000
8,9626020E-001	6,346915903859397E+000	1,000000000000000E+000
8,9324391E-001	6,246010321338165E+000	1,000000000000000E+000
8,9028156E-001	6,160482357351132E+000	1,000000000000000E+000
8,8725424E-001	6,058368886037499E+000	1,000000000000000E+000
8,8425994E-001	5,956378908350613E+000	1,000000000000000E+000
8,8125074E-001	5,873935297300477E+000	1,000000000000000E+000
8,7831801E-001	5,788133344311063E+000	1,000000000000000E+000
8,7520093E-001	5,665221430253197E+000	1,000000000000000E+000
8,7230814E-001	5,586162270061550E+000	1,000000000000000E+000
8,6927652E-001	5,490474085621273E+000	1,000000000000000E+000
8,6621433E-001	5,397860514063411E+000	1,000000000000000E+000
8,6318386E-001	5,315708155534692E+000	1,000000000000000E+000
8,6027539E-001	5,207147757368261E+000	1,000000000000000E+000
8,5721755E-001	5,136583764536859E+000	1,000000000000000E+000
8,5421783E-001	5,036943450029478E+000	1,000000000000000E+000
8,5122776E-001	4,963628292387843E+000	1,000000000000000E+000
8,4827691E-001	4,887341185424347E+000	1,000000000000000E+000
8,4524894E-001	4,786002960918708E+000	1,000000000000000E+000
8,4224790E-001	4,704104046229610E+000	1,000000000000000E+000
8,3920586E-001	4,622012012872588E+000	1,000000000000000E+000
8,3630395E-001	4,543238975428665E+000	1,000000000000000E+000
8,3322144E-001	4,467520275657954E+000	1,000000000000000E+000
8,3030885E-001	4,368129842507074E+000	1,000000000000000E+000
8,2725078E-001	4,311870894025219E+000	1,000000000000000E+000
8,2429343E-001	4,213693000209460E+000	1,000000000000000E+000
8,2122284E-001	4,141011251613936E+000	1,000000000000000E+000
8,1825829E-001	4,069492978472567E+000	1,000000000000000E+000
8,1527990E-001	3,991841661585411E+000	1,000000000000000E+000
8,1226742E-001	3,919383258201902E+000	1,000000000000000E+000
8,0926818E-001	3,825677598899162E+000	1,000000000000000E+000
8,0624902E-001	3,752494852863219E+000	1,000000000000000E+000
8,0326426E-001	3,676583514969109E+000	1,000000000000000E+000
8,0025190E-001	3,600262004028927E+000	1,000000000000000E+000
7,9731172E-001	3,529185946228282E+000	1,000000000000000E+000
7,9430246E-001	3,447513549810246E+000	1,000000000000000E+000
7,9127318E-001	3,375917550015870E+000	1,000000000000000E+000
7,8830224E-001	3,298388711685761E+000	1,000000000000000E+000
7,8527713E-001	3,209786664871946E+000	1,000000000000000E+000
7,8225517E-001	3,148527887706862E+000	1,000000000000000E+000
7,7926153E-001	3,084807922257273E+000	1,000000000000000E+000
7,7629942E-001	3,014473572170644E+000	1,000000000000000E+000
7,7323079E-001	2,940591801591470E+000	1,000000000000000E+000
7,7028739E-001	2,868954576315389E+000	1,000000000000000E+000
7,6725167E-001	2,797126685579613E+000	1,000000000000000E+000
7,6427007E-001	2,724686592344252E+000	1,000000000000000E+000
7,6125121E-001	2,651865207385310E+000	1,000000000000000E+000
7,5826395E-001	2,592736799546707E+000	1,000000000000000E+000
7,5527745E-001	2,517455646814675E+000	1,000000000000000E+000
7,5226408E-001	2,446863639804109E+000	1,000000000000000E+000
7,4932915E-001	2,385203900284502E+000	1,000000000000000E+000
7,4627542E-001	2,315552974419672E+000	1,000000000000000E+000
7,4329489E-001	2,260028860936155E+000	1,000000000000000E+000
7,4027181E-001	2,191087543744747E+000	1,000000000000000E+000
7,3725319E-001	2,130543025628651E+000	1,000000000000000E+000
7,3424494E-001	2,064197811866158E+000	1,000000000000000E+000
7,3128462E-001	2,005490840359883E+000	1,000000000000000E+000
7,2823310E-001	1,938343403616996E+000	1,000000000000000E+000
7,2522694E-001	1,874499556834461E+000	1,000000000000000E+000
7,2227824E-001	1,820215592038332E+000	1,000000000000000E+000
7,1930414E-001	1,761199309492731E+000	1,000000000000000E+000
7,1631193E-001	1,697695192785886E+000	1,000000000000000E+000
7,1328360E-001	1,643607215011155E+000	1,000000000000000E+000
7,1028709E-001	1,585170086768883E+000	1,000000000000000E+000
7,0728111E-001	1,527318772435393E+000	1,000000000000000E+000
7,0427936E-001	1,473921854581146E+000	1,000000000000000E+000
7,0127547E-001	1,417199439557095E+000	1,000000000000000E+000
6,9831294E-001	1,363131770893697E+000	1,000000000000000E+000
6,9530267E-001	1,317849273330909E+000	1,000000000000000E+000
6,9224292E-001	1,261312736365823E+000	1,000000000000000E+000
6,8925560E-001	1,218621762194879E+000	1,000000000000000E+000
6,8627405E-001	1,165132604471815E+000	1,000000000000000E+000
6,8327338E-001	1,113828407723008E+000	1,000000000000000E+000
6,8023020E-001	1,069839230048006E+000	1,000000000000000E+000
6,7727798E-001	1,021782308732625E+000	1,000000000000000E+000
6,7430204E-001	9,744435759882126E-001	1,000000000000000E+000
6,7128861E-001	9,295648134856283E-001	1,000000000000000E+000
6,6824436E-001	8,900692862143860E-001	1,000000000000000E+000
6,6529572E-001	8,462325853470887E-001	1,000000000000000E+000
6,6234487E-001	8,042436737288385E-001	1,000000000000000E+000
6,5931022E-001	7,657800704544879E-001	1,000000000000000E+000
6,5629786E-001	7,278895943748713E-001	1,000000000000000E+000
6,5334702E-001	6,873545623310480E-001	1,000000000000000E+000
6,5022105E-001	6,487725871085024E-001	1,000000000000000E+000
6,4725542E-001	6,148322931957564E-001	1,000000000000000E+000
6,4431840E-001	5,836926836545775E-001	1,000000000000000E+000
6,4130408E-001	5,475525203532290E-001	1,000000000000000E+000
6,3831484E-001	5,141056707707530E-001	1,000000000000000E+000
6,3525051E-001	4,855685018873084E-001	1,000000000000000E+000
6,3228899E-001	4,542488103643785E-001	1,000000000000000E+000
6,2917686E-001	4,270474969572016E-001	1,000000000000000E+000
6,2614608E-001	3,975246736412466E-001	1,000000000000000E+000
6,2320942E-001	3,707551166537684E-001	1,000000000000000E+000
6,2015563E-001	3,468137020667563E-001	1,000000000000000E+000
6,1716020E-001	3,205516714995511E-001	1,000000000000000E+000
6,1416382E-001	2,983156095729833E-001	1,000000000000000E+000
6,1114818E-001	2,760228592091467E-001	1,000000000000000E+000
6,0814542E-001	2,526379425201100E-001	1,000000000000000E+000
6,0518181E-001	2,344864937677444E-001	1,000000000000000E+000
6,0222995E-001	2,131251250129707E-001	1,000000000000000E+000
5,9916878E-001	1,974348875075214E-001	1,000000000000000E+000
5,9619457E-001	1,782461478355892E-001	1,000000000000000E+000
5,9320664E-001	1,613180625005340E-001	1,000000000000000E+000
5,9024119E-001	1,476090830615573E-001	1,000000000000000E+000
5,8717340E-001	1,325881809382674E-001	1,000000000000000E+000
5,8418643E-001	1,200931394713467E-001	1,000000000000000E+000
5,8120167E-001	1,069048002178521E-001	1,000000000000000E+000
5,7823390E-001	9,524040526811817E-002	1,000000000000000E+000
5,7524234E-001	8,487871231599226E-002	1,000000000000000E+000
5,7220274E-001	7,473613063925177E-002	1,000000000000000E+000
5,6915748E-001	6,547703338647581E-002	1,000000000000000E+000
5,6618541E-001	5,735370409389839E-002	1,000000000000000E+000
5,6324738E-001	4,979316697481262E-002	1,000000000000000E+000
5,6007254E-001	4,284691330322121E-002	1,000000000000000E+000
5,5707711E-001	3,693276766952680E-002	1,000000000000000E+000
5,5406368E-001	3,161432315772839E-002	1,000000000000000E+000
5,5109173E-001	2,694555824198036E-002	1,000000000000000E+000
5,4810262E-001	2,280888272620429E-002	1,000000000000000E+000
5,4511470E-001	1,907438226466554E-002	1,000000000000000E+000
5,4214370E-001	1,589523390824571E-002	1,000000000000000E+000
5,3910166E-001	1,309156456597721E-002	1,000000000000000E+000
5,3609771E-001	1,065544065633414E-002	1,000000000000000E+000
5,3310454E-001	8,554369365625411E-003	1,000000000000000E+000
5,3008360E-001	6,740789871574151E-003	1,000000000000000E+000
5,2697605E-001	5,029480115088053E-003	1,000000000000000E+000
5,2385938E-001	3,523899653361140E-003	1,000000000000000E+000
5,2091998E-001	2,361404696417929E-003	1,000000000000000E+000
5,1784825E-001	1,350660546689177E-003	1,000000000000000E+000
5,1489425E-001	4,548709539688290E-004	1,000000000000000E+000
5,1186591E-001	-3,351958214780565E-004	1,000000000000000E+000
5,0892895E-001	-1,044084589122987E-003	1,000000000000000E+000
5,0592399E-001	-1,679462866183576E-003	1,000000000000000E+000
5,0288063E-001	-2,256917136963521E-003	1,000000000000000E+000
4,9990454E-001	-2,802791538672191E-003	1,000000000000000E+000
4,9689323E-001	-3,310564831985524E-003	1,000000000000000E+000
4,9384469E-001	-3,803528284748017E-003	1,000000000000000E+000
4,9089608E-001	-4,241435213523700E-003	1,000000000000000E+000
4,8792291E-001	-4,732802839266637E-003	1,000000000000000E+000
4,8490524E-001	-5,196657597286367E-003	1,000000000000000E+000
4,8194814E-001	-5,661640534196682E-003	1,000000000000000E+000
4,7889853E-001	-6,128530285278655E-003	1,000000000000000E+000
4,7589892E-001	-6,626691658138516E-003	1,000000000000000E+000
4,7289822E-001	-7,173861862664985E-003	1,000000000000000E+000
4,6992832E-001	-7,745294162569055E-003	1,000000000000000E+000
4,6692657E-001	-8,407752733897281E-003	1,000000000000000E+000
4,6391943E-001	-9,130824269629703E-003	1,000000000000000E+000
4,6088448E-001	-9,988307286439707E-003	1,000000000000000E+000
4,5778322E-001	-1,113821321606318E-002	1,000000000000000E+000
4,5480484E-001	-1,253816106843985E-002	1,000000000000000E+000
4,5181370E-001	-1,428775844665835E-002	1,000000000000000E+000
4,4882146E-001	-1,645844255411964E-002	1,000000000000000E+000
4,4581115E-001	-1,907836026715348E-002	1,000000000000000E+000
4,4278499E-001	-2,197972599489828E-002	1,000000000000000E+000
4,3980980E-001	-2,500815026286790E-002	1,000000000000000E+000
4,3679610E-001	-2,787077855361786E-002	1,000000000000000E+000
4,3381262E-001	-3,002882943765300E-002	1,000000000000000E+000
4,3075350E-001	-3,102570032841342E-002	1,000000000000000E+000
4,2777833E-001	-3,053431825178027E-002	1,000000000000000E+000
4,2483813E-001	-2,875371380680614E-002	1,000000000000000E+000
4,2179599E-001	-2,627284889149378E-002	1,000000000000000E+000
4,1878572E-001	-2,362278651732786E-002	1,000000000000000E+000
4,1577548E-001	-2,122759855829628E-002	1,000000000000000E+000
4,1283956E-001	-1,934848784768956E-002	1,000000000000000E+000
4,0986961E-001	-1,803558729319724E-002	1,000000000000000E+000
4,0676379E-001	-1,713788158591839E-002	1,000000000000000E+000
4,0381196E-001	-1,651424376672572E-002	1,000000000000000E+000
4,0081441E-001	-1,606238078824380E-002	1,000000000000000E+000
3,9781693E-001	-1,574127726949001E-002	1,000000000000000E+000
3,9479712E-001	-1,549834073146344E-002	1,000000000000000E+000
3,9178580E-001	-1,530968538649669E-002	1,000000000000000E+000
3,8879681E-001	-1,514421337228186E-002	1,000000000000000E+000
3,8579828E-001	-1,504036387896623E-002	1,000000000000000E+000
3,8276774E-001	-1,493634613689623E-002	1,000000000000000E+000
3,7977770E-001	-1,487565572772706E-002	1,000000000000000E+000
3,7686512E-001	-1,480474279173949E-002	1,000000000000000E+000
3,7380171E-001	-1,474102159519627E-002	1,000000000000000E+000
3,7082726E-001	-1,470817343685519E-002	1,000000000000000E+000
3,6780459E-001	-1,467509953478827E-002	1,000000000000000E+000
3,6477309E-001	-1,464561042096046E-002	1,000000000000000E+000
3,6180425E-001	-1,460828676399020E-002	1,000000000000000E+000
3,5876852E-001	-1,459289000693248E-002	1,000000000000000E+000
3,5581452E-001	-1,458714109984843E-002	1,000000000000000E+000
3,5278091E-001	-1,456937508587880E-002	1,000000000000000E+000
3,4985137E-001	-1,455164492928028E-002	1,000000000000000E+000
3,4681347E-001	-1,453580809947178E-002	1,000000000000000E+000
3,4380215E-001	-1,453360488327848E-002	1,000000000000000E+000
3,4080890E-001	-1,451985921529645E-002	1,000000000000000E+000
3,3780077E-001	-1,452488041825509E-002	1,000000000000000E+000
3,3484915E-001	-1,451545755851776E-002	1,000000000000000E+000
3,3183229E-001	-1,451341096732067E-002	1,000000000000000E+000
3,2883051E-001	-1,450889876026290E-002	1,000000000000000E+000
3,2580537E-001	-1,450586167260240E-002	1,000000000000000E+000
3,2279617E-001	-1,448587083485814E-002	1,000000000000000E+000
3,1979620E-001	-1,450773591070541E-002	1,000000000000000E+000
3,1683832E-001	-1,449254023195234E-002	1,000000000000000E+000
3,1382594E-001	-1,448619735898144E-002	1,000000000000000E+000
3,1079552E-001	-1,447430747437620E-002	1,000000000000000E+000
3,0781496E-001	-1,445269028198439E-002	1,000000000000000E+000
3,0485037E-001	-1,446462822829894E-002	1,000000000000000E+000
3,0185816E-001	-1,446955649038593E-002	1,000000000000000E+000
2,9880437E-001	-1,444567518721621E-002	1,000000000000000E+000
2,9585567E-001	-1,444765186156912E-002	1,000000000000000E+000
2,9276896E-001	-1,444366257260241E-002	1,000000000000000E+000
2,8982666E-001	-1,443853139016216E-002	1,000000000000000E+000
2,8683233E-001	-1,442314831850439E-002	1,000000000000000E+000
2,8383726E-001	-1,440583469313753E-002	1,000000000000000E+000
2,8086281E-001	-1,441973490736087E-002	1,000000000000000E+000
2,7783766E-001	-1,439849345624347E-002	1,000000000000000E+000
2,7479130E-001	-1,439417836315982E-002	1,000000000000000E+000
2,7187660E-001	-1,437738519718938E-002	1,000000000000000E+000
2,6883325E-001	-1,436111278447549E-002	1,000000000000000E+000
2,6585713E-001	-1,435300783091066E-002	1,000000000000000E+000
2,6284263E-001	-1,433180695964034E-002	1,000000000000000E+000
2,5982073E-001	-1,431318527233294E-002	1,000000000000000E+000
2,5684443E-001	-1,430567105663960E-002	1,000000000000000E+000
2,5380126E-001	-1,429978972158336E-002	1,000000000000000E+000
2,5083771E-001	-1,430956294769084E-002	1,000000000000000E+000
2,4782747E-001	-1,428471566621392E-002	1,000000000000000E+000
2,4487983E-001	-1,428816901058461E-002	1,000000000000000E+000
2,4179208E-001	-1,428738376930833E-002	1,000000000000000E+000
2,3886570E-001	-1,424753600694539E-002	1,000000000000000E+000
2,3581825E-001	-1,426283932077674E-002	1,000000000000000E+000
2,3286352E-001	-1,422814873120562E-002	1,000000000000000E+000
2,2979137E-001	-1,421617083011252E-002	1,000000000000000E+000
2,2684057E-001	-1,421761361152452E-002	1,000000000000000E+000
2,2382076E-001	-1,419707605231962E-002	1,000000000000000E+000
2,2083600E-001	-1,417608058611733E-002	1,000000000000000E+000
2,1784247E-001	-1,415698294473544E-002	1,000000000000000E+000
2,1478042E-001	-1,414452164337282E-002	1,000000000000000E+000
2,1183176E-001	-1,413401805380224E-002	1,000000000000000E+000
2,0884484E-001	-1,409662996543901E-002	1,000000000000000E+000
2,0581654E-001	-1,410503023200569E-002	1,000000000000000E+000
2,0279887E-001	-1,406045487325311E-002	1,000000000000000E+000
1,9987780E-001	-1,404906786918050E-002	1,000000000000000E+000
1,9686754E-001	-1,402012964823049E-002	1,000000000000000E+000
1,9381268E-001	-1,398560228029505E-002	1,000000000000000E+000
1,9083109E-001	-1,395309025745378E-002	1,000000000000000E+000
1,8786649E-001	-1,392169163022250E-002	1,000000000000000E+000
1,8483923E-001	-1,387694415867610E-002	1,000000000000000E+000
1,8186648E-001	-1,385526642743531E-002	1,000000000000000E+000
1,7882401E-001	-1,381239047841026E-002	1,000000000000000E+000
1,7583819E-001	-1,376348763177399E-002	1,000000000000000E+000
1,7284916E-001	-1,372266930682151E-002	1,000000000000000E+000
1,6981980E-001	-1,368009035178312E-002	1,000000000000000E+000
1,6681795E-001	-1,363609781780323E-002	1,000000000000000E+000
1,6376317E-001	-1,358398561386492E-002	1,000000000000000E+000
1,6081132E-001	-1,355213685649664E-002	1,000000000000000E+000
1,5778196E-001	-1,346237040621114E-002	1,000000000000000E+000
1,5483540E-001	-1,341536957712514E-002	1,000000000000000E+000
1,5183045E-001	-1,336447939885435E-002	1,000000000000000E+000
1,4880320E-001	-1,331575241604033E-002	1,000000000000000E+000
1,4582160E-001	-1,324700518899813E-002	1,000000000000000E+000
1,4285171E-001	-1,319149568375480E-002	1,000000000000000E+000
1,3983612E-001	-1,313159788394870E-002	1,000000000000000E+000
1,3677491E-001	-1,305685130812759E-002	1,000000000000000E+000
1,3379331E-001	-1,299032702360425E-002	1,000000000000000E+000
1,3083862E-001	-1,292039141879722E-002	1,000000000000000E+000
1,2780996E-001	-1,286049507272724E-002	1,000000000000000E+000
1,2479015E-001	-1,277899606928937E-002	1,000000000000000E+000
1,2182449E-001	-1,272509881356508E-002	1,000000000000000E+000
1,1881424E-001	-1,265825193980924E-002	1,000000000000000E+000
1,1589202E-001	-1,260002794232452E-002	1,000000000000000E+000
1,1285636E-001	-1,250860042188451E-002	1,000000000000000E+000
1,0982911E-001	-1,242719199115100E-002	1,000000000000000E+000
1,0685071E-001	-1,236052761755063E-002	1,000000000000000E+000
1,0382134E-001	-1,227484175580599E-002	1,000000000000000E+000
1,0083508E-001	-1,219060368911817E-002	1,000000000000000E+000
9,7816728E-002	-1,211443464147657E-002	1,000000000000000E+000
9,4852135E-002	-1,202115980811127E-002	1,000000000000000E+000
9,1844000E-002	-1,193557240475709E-002	1,000000000000000E+000
8,8878341E-002	-1,184213197844991E-002	1,000000000000000E+000
8,5762963E-002	-1,174748015608226E-002	1,000000000000000E+000
8,2835525E-002	-1,165365435440693E-002	1,000000000000000E+000
7,9915516E-002	-1,155755705710407E-002	1,000000000000000E+000
7,6855354E-002	-1,146644013675138E-002	1,000000000000000E+000
7,3842965E-002	-1,136612581142471E-002	1,000000000000000E+000
7,0883676E-002	-1,127290410126131E-002	1,000000000000000E+000
6,7842625E-002	-1,116752920182880E-002	1,000000000000000E+000
6,4855762E-002	-1,109224114612384E-002	1,000000000000000E+000
6,1805118E-002	-1,099034989984710E-002	1,000000000000000E+000
5,8829904E-002	-1,089604801355543E-002	1,000000000000000E+000
5,5872727E-002	-1,079215230066499E-002	1,000000000000000E+000
5,2823190E-002	-1,070943273121619E-002	1,000000000000000E+000
4,9876310E-002	-1,060864582789134E-002	1,000000000000000E+000
4,6807978E-002	-1,051098453294105E-002	1,000000000000000E+000
4,3827452E-002	-1,041494597653942E-002	1,000000000000000E+000
4,0849045E-002	-1,032586507047811E-002	1,000000000000000E+000
3,7856836E-002	-1,020758755187254E-002	1,000000000000000E+000
3,4856133E-002	-1,014066891572621E-002	1,000000000000000E+000
3,1819325E-002	-1,003867000868842E-002	1,000000000000000E+000
2,8932240E-002	-9,940158505620481E-003	1,000000000000000E+000
2,5890123E-002	-9,863580696988519E-003	1,000000000000000E+000
2,2815095E-002	-9,785258448909789E-003	1,000000000000000E+000
1,9821828E-002	-9,700623995311908E-003	1,000000000000000E+000
1,6855104E-002	-9,604926469346214E-003	1,000000000000000E+000
1,3835618E-002	-9,513530745170751E-003	1,000000000000000E+000
1,0827153E-002	-9,440246726467538E-003	1,000000000000000E+000
7,8774160E-003	-9,331073702321994E-003	1,000000000000000E+000
4,9043209E-003	-9,261036285844883E-003	1,000000000000000E+000
1,8653924E-003	-9,179094672673457E-003	1,000000000000000E+000
-2,7098900E-004	-9,115903528735918E-003	1,000000000000000E+000