File: fig_4_nife_ceo2/Activity_1_CV/Ni25Fe75_Activity_1_CV_1_02_CV_C01.txt
Ewe/V	<I>/mA	cycle number
2,8175203E-004	-4,624285995960236E-001	1,000000000000000E+000
2,9893925E-003	-3,490992522584113E-002	1,000000000000000E+000
6,0220635E-003	-1,779712203150771E-002	1,000000000000000E+000
9,0056630E-003	-1,210166630625539E-002	1,000000000000000E+000
1,1954336E-002	-9,176589319452907E-003	1,000000000000000E+000
1,4978400E-002	-7,367118856370189E-003	1,000000000000000E+000
1,7971670E-002	-6,130623866088841E-003	1,000000000000000E+000
2,0975558E-002	-5,218432295681787E-003	1,000000000000000E+000
2,4124043E-002	-4,504270245264300E-003	1,000000000000000E+000
2,7188266E-002	-3,944500239778194E-003	1,000000000000000E+000
3,0162422E-002	-3,503300784697655E-003	1,000000000000000E+000
3,3220142E-002	-3,137061263447441E-003	1,000000000000000E+000
3,6180817E-002	-2,831399562245818E-003	1,000000000000000E+000
3,9195325E-002	-2,560638120691470E-003	1,000000000000000E+000
4,2198151E-002	-2,330883483135433E-003	1,000000000000000E+000
4,5141514E-002	-2,133790123603874E-003	1,000000000000000E+000
4,8176199E-002	-1,953767640970870E-003	1,000000000000000E+000
5,1164158E-002	-1,797089644324550E-003	1,000000000000000E+000
5,4172434E-002	-1,656376930675132E-003	1,000000000000000E+000
5,7174053E-002	-1,524945557147959E-003	1,000000000000000E+000
6,0157768E-002	-1,413938717424553E-003	1,000000000000000E+000
6,3129805E-002	-1,306182012049576E-003	1,000000000000000E+000
6,6157050E-002	-1,212315610778237E-003	1,000000000000000E+000
6,9165185E-002	-1,121614611113477E-003	1,000000000000000E+000
7,2192445E-002	-1,037469730231236E-003	1,000000000000000E+000
7,5210728E-002	-9,638381713618083E-004	1,000000000000000E+000
7,8210838E-002	-9,001846570226464E-004	1,000000000000000E+000
8,1167996E-002	-8,386189941877262E-004	1,000000000000000E+000
8,4189944E-002	-7,816558706700439E-004	1,000000000000000E+000
8,7155595E-002	-7,216274158041783E-004	1,000000000000000E+000
9,0211518E-002	-6,730884826472404E-004	1,000000000000000E+000
9,3154877E-002	-6,226034779099644E-004	1,000000000000000E+000
9,6177891E-002	-5,767310401124156E-004	1,000000000000000E+000
9,9106379E-002	-5,313743152982001E-004	1,000000000000000E+000
1,0214843E-001	-4,942167539250513E-004	1,000000000000000E+000
1,0516088E-001	-4,522487939753617E-004	1,000000000000000E+000
1,0813823E-001	-4,192585518698238E-004	1,000000000000000E+000
1,1117183E-001	-3,789116235112596E-004	1,000000000000000E+000
1,1417041E-001	-3,465192773099207E-004	1,000000000000000E+000
1,1716899E-001	-3,153742052461046E-004	1,000000000000000E+000
1,2010916E-001	-2,879367710155918E-004	1,000000000000000E+000
1,2314617E-001	-2,602398080616556E-004	1,000000000000000E+000
1,2615305E-001	-2,270593680982533E-004	1,000000000000000E+000
1,2920260E-001	-2,019357824980354E-004	1,000000000000000E+000
1,3215022E-001	-1,743456303811477E-004	1,000000000000000E+000
1,3513818E-001	-1,486139062897011E-004	1,000000000000000E+000
1,3815375E-001	-1,273055212377147E-004	1,000000000000000E+000
1,4114594E-001	-1,033753325050495E-004	1,000000000000000E+000
1,4417534E-001	-7,833512941762973E-005	1,000000000000000E+000
1,4716114E-001	-6,007978315007206E-005	1,000000000000000E+000
1,5012760E-001	-3,656111518226011E-005	1,000000000000000E+000
1,5308824E-001	-1,717925459704612E-005	1,000000000000000E+000
1,5616009E-001	-1,274213966529552E-007	1,000000000000000E+000
1,5918627E-001	1,710818879982034E-005	1,000000000000000E+000
1,6215511E-001	3,696969054288181E-005	1,000000000000000E+000
1,6521424E-001	5,633354393911163E-005	1,000000000000000E+000
1,6811828E-001	7,327351894047870E-005	1,000000000000000E+000
1,7117018E-001	9,112408107187571E-005	1,000000000000000E+000
1,7411862E-001	1,051840739434829E-004	1,000000000000000E+000
1,7710024E-001	1,208951753678387E-004	1,000000000000000E+000
1,8015191E-001	1,383518946240156E-004	1,000000000000000E+000
1,8321525E-001	1,543570383082443E-004	1,000000000000000E+000
1,8617031E-001	1,681605082979778E-004	1,000000000000000E+000
1,8915826E-001	1,787958298493631E-004	1,000000000000000E+000
1,9217063E-001	1,954131043147142E-004	1,000000000000000E+000
1,9513418E-001	2,083345255923714E-004	1,000000000000000E+000
1,9811633E-001	2,191691944924716E-004	1,000000000000000E+000
2,0114088E-001	2,333145542658460E-004	1,000000000000000E+000
2,0410657E-001	2,452519762556372E-004	1,000000000000000E+000
2,0708813E-001	2,593743522616057E-004	1,000000000000000E+000
2,1014830E-001	2,699627277681126E-004	1,000000000000000E+000
2,1317343E-001	2,857531296333177E-004	1,000000000000000E+000
2,1611892E-001	2,953221586693201E-004	1,000000000000000E+000
2,1911740E-001	3,068613496104615E-004	1,000000000000000E+000
2,2213627E-001	3,181647710287366E-004	1,000000000000000E+000
2,2515713E-001	3,288497475477520E-004	1,000000000000000E+000
2,2816421E-001	3,424795286429269E-004	1,000000000000000E+000
2,3121588E-001	3,539861135118832E-004	1,000000000000000E+000
2,3417199E-001	3,608814578865450E-004	1,000000000000000E+000
2,3714826E-001	3,689223653706490E-004	1,000000000000000E+000
2,4013643E-001	3,799712253580436E-004	1,000000000000000E+000
2,4315393E-001	3,880229604422691E-004	1,000000000000000E+000
2,4619074E-001	3,972771139816433E-004	1,000000000000000E+000
2,4910648E-001	4,061641941085475E-004	1,000000000000000E+000
2,5213370E-001	4,171228338030472E-004	1,000000000000000E+000
2,5518325E-001	4,244155900524765E-004	1,000000000000000E+000
2,5814682E-001	4,358567674694787E-004	1,000000000000000E+000
2,6113051E-001	4,425716591921584E-004	1,000000000000000E+000
2,6416519E-001	4,520426245893713E-004	1,000000000000000E+000
2,6715702E-001	4,612159436299819E-004	1,000000000000000E+000
2,7015281E-001	4,664537168217551E-004	1,000000000000000E+000
2,7315456E-001	4,756027045998952E-004	1,000000000000000E+000
2,7615952E-001	4,875257596153610E-004	1,000000000000000E+000
2,7917930E-001	4,952483180817105E-004	1,000000000000000E+000
2,8214285E-001	5,050729342447960E-004	1,000000000000000E+000
2,8519773E-001	5,066384723633501E-004	1,000000000000000E+000
2,8812626E-001	5,166505080583242E-004	1,000000000000000E+000
2,9118428E-001	5,245685453016597E-004	1,000000000000000E+000
2,9410747E-001	5,294907431048525E-004	1,000000000000000E+000
2,9714957E-001	5,371045025477435E-004	1,000000000000000E+000
3,0012479E-001	5,401518373551041E-004	1,000000000000000E+000
3,0314249E-001	5,503959082550861E-004	1,000000000000000E+000
3,0616444E-001	5,579338692628714E-004	1,000000000000000E+000
3,0910036E-001	5,623809409499336E-004	1,000000000000000E+000
3,1211913E-001	5,671428079784720E-004	1,000000000000000E+000
3,1509939E-001	5,755905931476121E-004	1,000000000000000E+000
3,1813434E-001	5,762942754227642E-004	1,000000000000000E+000
3,2114989E-001	5,872207278770306E-004	1,000000000000000E+000
3,2412404E-001	5,904900479151423E-004	1,000000000000000E+000
3,2716295E-001	5,950011131095629E-004	1,000000000000000E+000
3,3009890E-001	6,049007159600224E-004	1,000000000000000E+000
3,3315694E-001	6,102222817012303E-004	1,000000000000000E+000
3,3613101E-001	6,173722769068624E-004	1,000000000000000E+000
3,3915731E-001	6,205406279193642E-004	1,000000000000000E+000
3,4214526E-001	6,267222519384542E-004	1,000000000000000E+000
3,4510139E-001	6,306407584178771E-004	1,000000000000000E+000
3,4814560E-001	6,340797896476295E-004	1,000000000000000E+000
3,5117605E-001	6,382823992354780E-004	1,000000000000000E+000
3,5410351E-001	6,465373598634420E-004	1,000000000000000E+000
3,5710230E-001	6,495447499084098E-004	1,000000000000000E+000
3,6009848E-001	6,585910580429993E-004	1,000000000000000E+000
3,6312044E-001	6,620870683733708E-004	1,000000000000000E+000
3,6614132E-001	6,661832389919554E-004	1,000000000000000E+000
3,6913458E-001	6,724192619432566E-004	1,000000000000000E+000
3,7210241E-001	6,763534619703054E-004	1,000000000000000E+000
3,7512535E-001	6,801903142670089E-004	1,000000000000000E+000
3,7809744E-001	6,836437737784556E-004	1,000000000000000E+000
3,8114911E-001	6,873542637273328E-004	1,000000000000000E+000
3,8414967E-001	6,912179533516818E-004	1,000000000000000E+000
3,8710696E-001	6,953869967782390E-004	1,000000000000000E+000
3,9013845E-001	6,993829643645796E-004	1,000000000000000E+000
3,9306697E-001	7,007929210650649E-004	1,000000000000000E+000
3,9613983E-001	7,057790449080167E-004	1,000000000000000E+000
3,9915225E-001	7,087944700999577E-004	1,000000000000000E+000
4,0214232E-001	7,157123389894618E-004	1,000000000000000E+000
4,0509549E-001	7,204890912621623E-004	1,000000000000000E+000
4,0809065E-001	7,270964889644523E-004	1,000000000000000E+000
4,1114333E-001	7,346121435773158E-004	1,000000000000000E+000
4,1407824E-001	7,362226387201722E-004	1,000000000000000E+000
4,1713095E-001	7,478085848841489E-004	1,000000000000000E+000
4,2013589E-001	7,549331325880509E-004	1,000000000000000E+000
4,2318869E-001	7,611499985822803E-004	1,000000000000000E+000
4,2613140E-001	7,742526393376653E-004	1,000000000000000E+000
4,2909342E-001	7,843846166768441E-004	1,000000000000000E+000
4,3211961E-001	7,991628504265590E-004	1,000000000000000E+000
4,3518615E-001	8,117706490839739E-004	1,000000000000000E+000
4,3813375E-001	8,250846054959054E-004	1,000000000000000E+000
4,4111428E-001	8,373687522349339E-004	1,000000000000000E+000
4,4409800E-001	8,594780175493529E-004	1,000000000000000E+000
4,4713378E-001	8,779471144553970E-004	1,000000000000000E+000
4,5013440E-001	8,957371267275180E-004	1,000000000000000E+000
4,5315501E-001	9,182396935005768E-004	1,000000000000000E+000
4,5608804E-001	9,406453353885957E-004	1,000000000000000E+000
4,5912382E-001	9,662462598704902E-004	1,000000000000000E+000
4,6216697E-001	9,969078127638996E-004	1,000000000000000E+000
4,6509334E-001	1,029177225035035E-003	1,000000000000000E+000
4,6812803E-001	1,061992835706336E-003	1,000000000000000E+000
4,7115639E-001	1,106345477206630E-003	1,000000000000000E+000
4,7414142E-001	1,157684406529760E-003	1,000000000000000E+000
4,7715035E-001	1,209863019461256E-003	1,000000000000000E+000
4,8009580E-001	1,276843611508605E-003	1,000000000000000E+000
4,8309764E-001	1,357405022492646E-003	1,000000000000000E+000
4,8611632E-001	1,458820454732928E-003	1,000000000000000E+000
4,8915526E-001	1,585739235831385E-003	1,000000000000000E+000
4,9210712E-001	1,747886948364044E-003	1,000000000000000E+000
4,9515033E-001	1,966840403298094E-003	1,000000000000000E+000
4,9814993E-001	2,249232755506432E-003	1,000000000000000E+000
5,0115454E-001	2,623210681417376E-003	1,000000000000000E+000
5,0419801E-001	3,114691329182830E-003	1,000000000000000E+000
5,0710541E-001	3,759215834061936E-003	1,000000000000000E+000
5,1008904E-001	4,613037740647002E-003	1,000000000000000E+000
5,1313537E-001	5,714828411903600E-003	1,000000000000000E+000
5,1611167E-001	7,137381642554785E-003	1,000000000000000E+000
5,1908374E-001	8,924115484035530E-003	1,000000000000000E+000
5,2217185E-001	1,125300603397494E-002	1,000000000000000E+000
5,2528900E-001	1,380278779124597E-002	1,000000000000000E+000
5,2821857E-001	1,668788496084949E-002	1,000000000000000E+000
5,3118521E-001	1,981372528080141E-002	1,000000000000000E+000
5,3418702E-001	2,315735902405991E-002	1,000000000000000E+000
5,3716755E-001	2,662162705141921E-002	1,000000000000000E+000
5,4021716E-001	3,014612047539189E-002	1,000000000000000E+000
5,4319018E-001	3,374216804764496E-002	1,000000000000000E+000
5,4623872E-001	3,776035836951670E-002	1,000000000000000E+000
5,4922640E-001	4,164012802452710E-002	1,000000000000000E+000
5,5218911E-001	4,596150325861492E-002	1,000000000000000E+000
5,5521953E-001	5,084260610141317E-002	1,000000000000000E+000
5,5820757E-001	5,717036546188961E-002	1,000000000000000E+000
5,6121033E-001	6,419669922183591E-002	1,000000000000000E+000
5,6426418E-001	7,256076275212608E-002	1,000000000000000E+000
5,6717032E-001	8,235849255364358E-002	1,000000000000000E+000
5,7019329E-001	9,331336548387342E-002	1,000000000000000E+000
5,7322782E-001	1,065102443150789E-001	1,000000000000000E+000
5,7628822E-001	1,211576589410641E-001	1,000000000000000E+000
5,7938766E-001	1,375439934233997E-001	1,000000000000000E+000
5,8227581E-001	1,540713880006264E-001	1,000000000000000E+000
5,8531785E-001	1,719272282489841E-001	1,000000000000000E+000
5,8830905E-001	1,917898183965168E-001	1,000000000000000E+000
5,9133518E-001	2,129900082164440E-001	1,000000000000000E+000
5,9428495E-001	2,362178156591637E-001	1,000000000000000E+000
5,9730661E-001	2,597224392731212E-001	1,000000000000000E+000
6,0025460E-001	2,851895915931446E-001	1,000000000000000E+000
6,0327435E-001	3,129820422799465E-001	1,000000000000000E+000
6,0633135E-001	3,411311276970839E-001	1,000000000000000E+000
6,0931402E-001	3,713555145446961E-001	1,000000000000000E+000
6,1226588E-001	4,031555605904464E-001	1,000000000000000E+000
6,1526650E-001	4,366490097120908E-001	1,000000000000000E+000
6,1831206E-001	4,709354339040259E-001	1,000000000000000E+000
6,2127537E-001	5,105162862341989E-001	1,000000000000000E+000
6,2429947E-001	5,486120525916496E-001	1,000000000000000E+000
6,2729168E-001	5,890781474500368E-001	1,000000000000000E+000
6,3034970E-001	6,317307997131727E-001	1,000000000000000E+000
6,3327068E-001	6,776048117898039E-001	1,000000000000000E+000
6,3627255E-001	7,212464508437897E-001	1,000000000000000E+000
6,3926566E-001	7,721727904801270E-001	1,000000000000000E+000
6,4234513E-001	8,206151986405921E-001	1,000000000000000E+000
6,4529216E-001	8,750063291469496E-001	1,000000000000000E+000
6,4837939E-001	9,307747121368095E-001	1,000000000000000E+000
6,5129405E-001	9,879205793125430E-001	1,000000000000000E+000
6,5430754E-001	1,048075444438830E+000	1,000000000000000E+000
6,5744942E-001	1,111627616613365E+000	1,000000000000000E+000
6,6040242E-001	1,177338447937078E+000	1,000000000000000E+000
6,6335207E-001	1,240783193949062E+000	1,000000000000000E+000
6,6648448E-001	1,309531478318874E+000	1,000000000000000E+000
6,6938436E-001	1,381338366921868E+000	1,000000000000000E+000
6,7241687E-001	1,454275343195448E+000	1,000000000000000E+000
6,7541122E-001	1,529937432229925E+000	1,000000000000000E+000
6,7841613E-001	1,604103127456437E+000	1,000000000000000E+000
6,8142748E-001	1,684021487122492E+000	1,000000000000000E+000
6,8442082E-001	1,759875267659584E+000	1,000000000000000E+000
6,8743348E-001	1,844151932428886E+000	1,000000000000000E+000
6,9038504E-001	1,927981272576353E+000	1,000000000000000E+000
6,9337410E-001	2,015329615283367E+000	1,000000000000000E+000
6,9644487E-001	2,101229843216821E+000	1,000000000000000E+000
6,9940406E-001	2,190076316953913E+000	1,000000000000000E+000
7,0239943E-001	2,280317230914591E+000	1,000000000000000E+000
7,0542246E-001	2,374022652198668E+000	1,000000000000000E+000
7,0840305E-001	2,471292424566883E+000	1,000000000000000E+000
7,1137506E-001	2,563790588303915E+000	1,000000000000000E+000
7,1439594E-001	2,656051806167454E+000	1,000000000000000E+000
7,1741897E-001	2,750512322296899E+000	1,000000000000000E+000
7,2045457E-001	2,856935662882677E+000	1,000000000000000E+000
7,2335660E-001	2,952149044190151E+000	1,000000000000000E+000
7,2640717E-001	3,057273302049865E+000	1,000000000000000E+000
7,2940785E-001	3,154880839748458E+000	1,000000000000000E+000
7,3243201E-001	3,254998231454504E+000	1,000000000000000E+000
7,3541170E-001	3,364081934713468E+000	1,000000000000000E+000
7,3840892E-001	3,471974634022697E+000	1,000000000000000E+000
7,4137890E-001	3,579315618559075E+000	1,000000000000000E+000
7,4440396E-001	3,690444069553379E+000	1,000000000000000E+000
7,4738985E-001	3,801315156578227E+000	1,000000000000000E+000
7,5035661E-001	3,907638712095576E+000	1,000000000000000E+000
7,5344115E-001	4,026156008986931E+000	1,000000000000000E+000
7,5638872E-001	4,140675567141196E+000	1,000000000000000E+000
7,5942236E-001	4,246681696399543E+000	1,000000000000000E+000
7,6239729E-001	4,360416833523395E+000	1,000000000000000E+000
7,6531231E-001	4,471326209148586E+000	1,000000000000000E+000
7,6840752E-001	4,592865006993957E+000	1,000000000000000E+000
7,7141142E-001	4,705322140130875E+000	1,000000000000000E+000
7,7439189E-001	4,821392081019042E+000	1,000000000000000E+000
7,7739894E-001	4,945881029814828E+000	1,000000000000000E+000
7,8044111E-001	5,060926099314173E+000	1,000000000000000E+000
7,8343993E-001	5,184192063757067E+000	1,000000000000000E+000
7,8635961E-001	5,305574472866915E+000	1,000000000000000E+000
7,8939009E-001	5,430227167988853E+000	1,000000000000000E+000
7,9232812E-001	5,547805708214277E+000	1,000000000000000E+000
7,9542863E-001	5,670647863256420E+000	1,000000000000000E+000
7,9840499E-001	5,801499182134535E+000	1,000000000000000E+000
8,0141211E-001	5,921346850372203E+000	1,000000000000000E+000
8,0436224E-001	6,050178321200420E+000	1,000000000000000E+000
8,0743998E-001	6,175081869507054E+000	1,000000000000000E+000
8,1043667E-001	6,300951475332718E+000	1,000000000000000E+000
8,1342757E-001	6,423301511137907E+000	1,000000000000000E+000
8,1643355E-001	6,558604051466745E+000	1,000000000000000E+000
8,1944489E-001	6,672431113836183E+000	1,000000000000000E+000
8,2236278E-001	6,799110227025807E+000	1,000000000000000E+000
8,2536459E-001	6,936735988339059E+000	1,000000000000000E+000
8,2840025E-001	7,055841735431130E+000	1,000000000000000E+000
8,3141232E-001	7,195289110035491E+000	1,000000000000000E+000
8,3436453E-001	7,324788925463906E+000	1,000000000000000E+000
8,3733553E-001	7,458693045877801E+000	1,000000000000000E+000
8,4037882E-001	7,596762895381346E+000	1,000000000000000E+000
8,4334439E-001	7,720924551862737E+000	1,000000000000000E+000
8,4637469E-001	7,863610561472484E+000	1,000000000000000E+000
8,4937871E-001	7,995487412763012E+000	1,000000000000000E+000
8,5242188E-001	8,137554462733050E+000	1,000000000000000E+000
8,5538220E-001	8,270803324422062E+000	1,000000000000000E+000
8,5840738E-001	8,397950331032135E+000	1,000000000000000E+000
8,6139315E-001	8,545579910278398E+000	1,000000000000000E+000
8,6438221E-001	8,685156962295821E+000	1,000000000000000E+000
8,6737555E-001	8,828216470558381E+000	1,000000000000000E+000
8,7034959E-001	8,973300794827964E+000	1,000000000000000E+000
8,7339473E-001	9,102951707600937E+000	1,000000000000000E+000
8,7637007E-001	9,250696253749560E+000	1,000000000000000E+000
8,7936080E-001	9,390576265022140E+000	1,000000000000000E+000
8,8238007E-001	9,535815962182710E+000	1,000000000000000E+000
8,8540518E-001	9,673451714166958E+000	1,000000000000000E+000
8,8836658E-001	9,833569541674882E+000	1,000000000000000E+000
8,9135140E-001	9,972244952879208E+000	1,000000000000000E+000
8,9436048E-001	1,013112184486421E+001	1,000000000000000E+000
8,9738572E-001	1,025637421998574E+001	1,000000000000000E+000
9,0039140E-001	1,043081646340679E+001	1,000000000000000E+000
9,0335107E-001	1,056848535914811E+001	1,000000000000000E+000
9,0644401E-001	1,072005006197901E+001	1,000000000000000E+000
9,0936732E-001	1,088069543012684E+001	1,000000000000000E+000
9,1245919E-001	1,103612223869007E+001	1,000000000000000E+000
9,1546851E-001	1,119440183678722E+001	1,000000000000000E+000
9,1849142E-001	1,135318318712200E+001	1,000000000000000E+000
9,2145973E-001	1,149585585200614E+001	1,000000000000000E+000
9,2447269E-001	1,165233225448064E+001	1,000000000000000E+000
9,2743951E-001	1,180118201608705E+001	1,000000000000000E+000
9,3044764E-001	1,195736249896129E+001	1,000000000000000E+000
9,3352473E-001	1,210719170977200E+001	1,000000000000000E+000
9,3647772E-001	1,227840619198048E+001	1,000000000000000E+000
9,3941998E-001	1,242730368197371E+001	1,000000000000000E+000
9,4244409E-001	1,258492982374020E+001	1,000000000000000E+000
9,4546062E-001	1,276455181336996E+001	1,000000000000000E+000
9,4845378E-001	1,291156358232712E+001	1,000000000000000E+000
9,5145887E-001	1,308068251109719E+001	1,000000000000000E+000
9,5448923E-001	1,321980507114310E+001	1,000000000000000E+000
9,5751864E-001	1,338366688838624E+001	1,000000000000000E+000
9,6043020E-001	1,354005644286302E+001	1,000000000000000E+000
9,6340752E-001	1,371092069946445E+001	1,000000000000000E+000
9,6639758E-001	1,388280574413113E+001	1,000000000000000E+000
9,6945268E-001	1,402170812789439E+001	1,000000000000000E+000
9,7252959E-001	1,418361935418208E+001	1,000000000000000E+000
9,7546446E-001	1,432969236630703E+001	1,000000000000000E+000
9,7848856E-001	1,450484352574055E+001	1,000000000000000E+000
9,8147011E-001	1,466319887356966E+001	1,000000000000000E+000
9,8443371E-001	1,482118925877981E+001	1,000000000000000E+000
9,8743963E-001	1,496297874864263E+001	1,000000000000000E+000
9,9047482E-001	1,513178041267075E+001	1,000000000000000E+000
9,9343902E-001	1,529569783056678E+001	1,000000000000000E+000
9,9647260E-001	1,543783857499912E+001	1,000000000000000E+000
9,9939287E-001	1,560015572333823E+001	1,000000000000000E+000
9,9824804E-001	1,549800080966511E+001	1,000000000000000E+000
9,9526531E-001	1,523804354275705E+001	1,000000000000000E+000
9,9219990E-001	1,502831875142601E+001	1,000000000000000E+000
9,8925966E-001	1,481307630501098E+001	1,000000000000000E+000
9,8624414E-001	1,461510626772358E+001	1,000000000000000E+000
9,8327190E-001	1,441240171472543E+001	1,000000000000000E+000
9,8026389E-001	1,420450265648151E+001	1,000000000000000E+000
9,7724199E-001	1,403445091836846E+001	1,000000000000000E+000
9,7427094E-001	1,383890317613577E+001	1,000000000000000E+000
9,7125119E-001	1,366224248109222E+001	1,000000000000000E+000
9,6824193E-001	1,346912348297457E+001	1,000000000000000E+000
9,6523595E-001	1,328668534161017E+001	1,000000000000000E+000
9,6223736E-001	1,313769115166332E+001	1,000000000000000E+000
9,5923245E-001	1,293491313070939E+001	1,000000000000000E+000
9,5624048E-001	1,275535240824547E+001	1,000000000000000E+000
9,5327985E-001	1,259389611558316E+001	1,000000000000000E+000
9,5023984E-001	1,244015356330641E+001	1,000000000000000E+000
9,4725513E-001	1,226831512001095E+001	1,000000000000000E+000
9,4418859E-001	1,208154474019733E+001	1,000000000000000E+000
9,4118261E-001	1,193565309176091E+001	1,000000000000000E+000
9,3823916E-001	1,174795674277539E+001	1,000000000000000E+000
9,3523961E-001	1,161857164980376E+001	1,000000000000000E+000
9,3224210E-001	1,143905041466493E+001	1,000000000000000E+000
9,2926258E-001	1,128198821541948E+001	1,000000000000000E+000
9,2624164E-001	1,112315396082641E+001	1,000000000000000E+000
9,2324632E-001	1,096547972412604E+001	1,000000000000000E+000
9,2022753E-001	1,080063638712814E+001	1,000000000000000E+000
9,1722780E-001	1,065349290869675E+001	1,000000000000000E+000
9,1424161E-001	1,050661459712920E+001	1,000000000000000E+000
9,1122645E-001	1,036399389245884E+001	1,000000000000000E+000
9,0828848E-001	1,018785197887563E+001	1,000000000000000E+000
9,0524417E-001	1,004103205601373E+001	1,000000000000000E+000
9,0225208E-001	9,906596277373730E+000	1,000000000000000E+000
8,9927894E-001	9,748459501534086E+000	1,000000000000000E+000
8,9623994E-001	9,595010036986992E+000	1,000000000000000E+000
8,9319789E-001	9,455814100717447E+000	1,000000000000000E+000
8,9023328E-001	9,309861888961223E+000	1,000000000000000E+000
8,8716668E-001	9,172831538729035E+000	1,000000000000000E+000
8,8422650E-001	9,015744855006517E+000	1,000000000000000E+000
8,8126725E-001	8,874046064963977E+000	1,000000000000000E+000
8,7819755E-001	8,738876564094554E+000	1,000000000000000E+000
8,7524569E-001	8,589782718830961E+000	1,000000000000000E+000
8,7225664E-001	8,452113867684545E+000	1,000000000000000E+000
8,6926651E-001	8,321286049491945E+000	1,000000000000000E+000
8,6619443E-001	8,185410320240109E+000	1,000000000000000E+000
8,6325878E-001	8,055641362118379E+000	1,000000000000000E+000
8,6022627E-001	7,919142184006105E+000	1,000000000000000E+000
8,5721391E-001	7,782520364539181E+000	1,000000000000000E+000
8,5423440E-001	7,650829708157197E+000	1,000000000000000E+000
8,5125178E-001	7,524977866889685E+000	1,000000000000000E+000
8,4820324E-001	7,400291363330666E+000	1,000000000000000E+000
8,4519941E-001	7,266148851031346E+000	1,000000000000000E+000
8,4223580E-001	7,140087939038565E+000	1,000000000000000E+000
8,3927703E-001	7,004183723894982E+000	1,000000000000000E+000
8,3625889E-001	6,886943432884721E+000	1,000000000000000E+000
8,3326560E-001	6,757212410573260E+000	1,000000000000000E+000
8,3027017E-001	6,630561054158335E+000	1,000000000000000E+000
8,2723343E-001	6,508277190988565E+000	1,000000000000000E+000
8,2427514E-001	6,383045877526399E+000	1,000000000000000E+000
8,2123405E-001	6,266240186499367E+000	1,000000000000000E+000
8,1827593E-001	6,138697271387329E+000	1,000000000000000E+000
8,1529105E-001	6,014621586756363E+000	1,000000000000000E+000
8,1224477E-001	5,906387340150709E+000	1,000000000000000E+000
8,0927479E-001	5,784022079100680E+000	1,000000000000000E+000
8,0626029E-001	5,670036912538833E+000	1,000000000000000E+000
8,0326587E-001	5,558951835716110E+000	1,000000000000000E+000
8,0024403E-001	5,435092394516843E+000	1,000000000000000E+000
7,9728979E-001	5,316243484708266E+000	1,000000000000000E+000
7,9428726E-001	5,202804669602664E+000	1,000000000000000E+000
7,9127377E-001	5,082988347123283E+000	1,000000000000000E+000
7,8814459E-001	4,971294855044258E+000	1,000000000000000E+000
7,8520542E-001	4,862222105940447E+000	1,000000000000000E+000
7,8225893E-001	4,746458692750707E+000	1,000000000000000E+000
7,7929115E-001	4,643692493371137E+000	1,000000000000000E+000
7,7627194E-001	4,531929972000061E+000	1,000000000000000E+000
7,7304554E-001	4,414961005926401E+000	1,000000000000000E+000
7,7013737E-001	4,302965526469642E+000	1,000000000000000E+000
7,6703030E-001	4,197760603054855E+000	1,000000000000000E+000
7,6407850E-001	4,093513070928825E+000	1,000000000000000E+000
7,6106507E-001	3,984209064757477E+000	1,000000000000000E+000
7,5809932E-001	3,875948569536746E+000	1,000000000000000E+000
7,5506252E-001	3,781684753373099E+000	1,000000000000000E+000
7,5210118E-001	3,670421757800767E+000	1,000000000000000E+000
7,4905974E-001	3,565388993855159E+000	1,000000000000000E+000
7,4609864E-001	3,467906032053257E+000	1,000000000000000E+000
7,4305540E-001	3,373589350421682E+000	1,000000000000000E+000
7,4000913E-001	3,269320451990264E+000	1,000000000000000E+000
7,3709232E-001	3,175415165468955E+000	1,000000000000000E+000
7,3405772E-001	3,074446944963361E+000	1,000000000000000E+000
7,3110795E-001	2,981627075056494E+000	1,000000000000000E+000
7,2800213E-001	2,889487289399126E+000	1,000000000000000E+000
7,2505659E-001	2,795096923890700E+000	1,000000000000000E+000
7,2207648E-001	2,700270584256025E+000	1,000000000000000E+000
7,1912849E-001	2,610891525673761E+000	1,000000000000000E+000
7,1606618E-001	2,522231315809581E+000	1,000000000000000E+000
7,1312702E-001	2,436121719224113E+000	1,000000000000000E+000
7,1006262E-001	2,343156998440648E+000	1,000000000000000E+000
7,0708418E-001	2,264505796894731E+000	1,000000000000000E+000
7,0410478E-001	2,179380924709132E+000	1,000000000000000E+000
7,0111769E-001	2,099880145022077E+000	1,000000000000000E+000
6,9813412E-001	2,017363557469551E+000	1,000000000000000E+000
6,9511002E-001	1,937781085638237E+000	1,000000000000000E+000
6,9213694E-001	1,865051868416013E+000	1,000000000000000E+000
6,8909913E-001	1,783234113873799E+000	1,000000000000000E+000
6,8605596E-001	1,710578038088997E+000	1,000000000000000E+000
6,8312639E-001	1,641889456042900E+000	1,000000000000000E+000
6,8014175E-001	1,567327553849864E+000	1,000000000000000E+000
6,7712289E-001	1,495195196413533E+000	1,000000000000000E+000
6,7409724E-001	1,427975747480689E+000	1,000000000000000E+000
6,7108011E-001	1,360656047024497E+000	1,000000000000000E+000
6,6813552E-001	1,295221544548765E+000	1,000000000000000E+000
6,6510516E-001	1,235806424567759E+000	1,000000000000000E+000
6,6213316E-001	1,176477428466554E+000	1,000000000000000E+000
6,5907300E-001	1,115644330129264E+000	1,000000000000000E+000
6,5613168E-001	1,061110237617543E+000	1,000000000000000E+000
6,5309602E-001	1,003215632718582E+000	1,000000000000000E+000
6,5013456E-001	9,469311522771875E-001	1,000000000000000E+000
6,4707977E-001	8,995218218099375E-001	1,000000000000000E+000
6,4407378E-001	8,440402148211248E-001	1,000000000000000E+000
6,4111441E-001	7,968667866049728E-001	1,000000000000000E+000
6,3821250E-001	7,498316586338589E-001	1,000000000000000E+000
6,3506526E-001	7,057048543831526E-001	1,000000000000000E+000
6,3212258E-001	6,613644158664496E-001	1,000000000000000E+000
6,2903404E-001	6,191929124439328E-001	1,000000000000000E+000
6,2607056E-001	5,809343252964538E-001	1,000000000000000E+000
6,2319833E-001	5,398658407079102E-001	1,000000000000000E+000
6,2017852E-001	5,046707351149271E-001	1,000000000000000E+000
6,1714387E-001	4,691663883339263E-001	1,000000000000000E+000
6,1403698E-001	4,352605234611930E-001	1,000000000000000E+000
6,1096829E-001	4,011501165153373E-001	1,000000000000000E+000
6,0798138E-001	3,698482309085849E-001	1,000000000000000E+000
6,0501802E-001	3,409525461539369E-001	1,000000000000000E+000
6,0199165E-001	3,146925309795447E-001	1,000000000000000E+000
5,9900790E-001	2,873112186240432E-001	1,000000000000000E+000
5,9598500E-001	2,635838452139510E-001	1,000000000000000E+000
5,9301716E-001	2,388369385871085E-001	1,000000000000000E+000
5,8998567E-001	2,158940401996852E-001	1,000000000000000E+000
5,8697116E-001	1,962191667999069E-001	1,000000000000000E+000
5,8397663E-001	1,754662970396239E-001	1,000000000000000E+000
5,8102602E-001	1,580046846894574E-001	1,000000000000000E+000
5,7803071E-001	1,398210399140043E-001	1,000000000000000E+000
5,7499278E-001	1,237080574158131E-001	1,000000000000000E+000
5,7198250E-001	1,098423018690430E-001	1,000000000000000E+000
5,6896269E-001	9,577058001564986E-002	1,000000000000000E+000
5,6598955E-001	8,374662898098628E-002	1,000000000000000E+000
5,6302190E-001	7,212431904650785E-002	1,000000000000000E+000
5,5999559E-001	6,197027190981230E-002	1,000000000000000E+000
5,5696458E-001	5,301260342130698E-002	1,000000000000000E+000
5,5400318E-001	4,483253095205708E-002	1,000000000000000E+000
5,5086082E-001	3,764469969316547E-002	1,000000000000000E+000
5,4788661E-001	3,125214849729652E-002	1,000000000000000E+000
5,4491031E-001	2,578740674514490E-002	1,000000000000000E+000
5,4187876E-001	2,118643768825480E-002	1,000000000000000E+000
5,3892386E-001	1,715274278141549E-002	1,000000000000000E+000
5,3592086E-001	1,374237297042058E-002	1,000000000000000E+000
5,3284699E-001	1,086978400209251E-002	1,000000000000000E+000
5,2990472E-001	8,492104902580025E-003	1,000000000000000E+000
5,2693903E-001	6,494376628766285E-003	1,000000000000000E+000
5,2386236E-001	4,938822649169856E-003	1,000000000000000E+000
5,2077198E-001	3,371050850397968E-003	1,000000000000000E+000
5,1785415E-001	2,262345291732215E-003	1,000000000000000E+000
5,1478440E-001	1,372168159463491E-003	1,000000000000000E+000
5,1177841E-001	6,420777791429910E-004	1,000000000000000E+000
5,0879604E-001	4,256801246708020E-005	1,000000000000000E+000
5,0577593E-001	-4,635529378297721E-004	1,000000000000000E+000
5,0282729E-001	-8,619062571601291E-004	1,000000000000000E+000
4,9981174E-001	-1,215822651353111E-003	1,000000000000000E+000
4,9682161E-001	-1,516812293172361E-003	1,000000000000000E+000
4,9382618E-001	-1,796180342971895E-003	1,000000000000000E+000
4,9080211E-001	-2,028062696270508E-003	1,000000000000000E+000
4,8786283E-001	-2,273365183411761E-003	1,000000000000000E+000
4,8478481E-001	-2,510430342391741E-003	1,000000000000000E+000
4,8177242E-001	-2,731238392098143E-003	1,000000000000000E+000
4,7878447E-001	-2,957458088537170E-003	1,000000000000000E+000
4,7578588E-001	-3,209025824270661E-003	1,000000000000000E+000
4,7278732E-001	-3,485158880535813E-003	1,000000000000000E+000
4,6974939E-001	-3,788923908908316E-003	1,000000000000000E+000
4,6682093E-001	-4,141983002621655E-003	1,000000000000000E+000
4,6380004E-001	-4,541990341102043E-003	1,000000000000000E+000
4,6082732E-001	-5,043213823676777E-003	1,000000000000000E+000
4,5782205E-001	-5,674798704073739E-003	1,000000000000000E+000
4,5480430E-001	-6,496415562812108E-003	1,000000000000000E+000
4,5184609E-001	-7,596392874738470E-003	1,000000000000000E+000
4,4877425E-001	-9,103970857357702E-003	1,000000000000000E+000
4,4573641E-001	-1,109852231965064E-002	1,000000000000000E+000
4,4273245E-001	-1,361913356073136E-002	1,000000000000000E+000
4,3972403E-001	-1,641830759543289E-002	1,000000000000000E+000
4,3667060E-001	-1,934558958899607E-002	1,000000000000000E+000
4,3373147E-001	-2,181236607103354E-002	1,000000000000000E+000
4,3067345E-001	-2,325512837753746E-002	1,000000000000000E+000
4,2768756E-001	-2,323601838510658E-002	1,000000000000000E+000
4,2477608E-001	-2,164048712836287E-002	1,000000000000000E+000
4,2173183E-001	-1,889395115798331E-002	1,000000000000000E+000
4,1867802E-001	-1,555322629506239E-002	1,000000000000000E+000
4,1570598E-001	-1,229333860431155E-002	1,000000000000000E+000
4,1269505E-001	-9,607263811021720E-003	1,000000000000000E+000
4,0973115E-001	-7,673366483651510E-003	1,000000000000000E+000
4,0670177E-001	-6,348309392421564E-003	1,000000000000000E+000
4,0368935E-001	-5,417791998934871E-003	1,000000000000000E+000
4,0070564E-001	-4,742374716311018E-003	1,000000000000000E+000
3,9748722E-001	-4,150971185768126E-003	1,000000000000000E+000
3,9450356E-001	-3,761387397628851E-003	1,000000000000000E+000
3,9149320E-001	-3,444970780219176E-003	1,000000000000000E+000
3,8854572E-001	-3,181437678209314E-003	1,000000000000000E+000
3,8554078E-001	-2,972741778186953E-003	1,000000000000000E+000
3,8243389E-001	-2,784823147340326E-003	1,000000000000000E+000
3,7949690E-001	-2,638346247094921E-003	1,000000000000000E+000
3,7648666E-001	-2,498913600983029E-003	1,000000000000000E+000
3,7350929E-001	-2,385357704793395E-003	1,000000000000000E+000
3,7050116E-001	-2,289762948929634E-003	1,000000000000000E+000
3,6755884E-001	-2,200791811539642E-003	1,000000000000000E+000
3,6453733E-001	-2,127866555928573E-003	1,000000000000000E+000
3,6150539E-001	-2,057884606641507E-003	1,000000000000000E+000
3,5848135E-001	-2,000745677863972E-003	1,000000000000000E+000
3,5549444E-001	-1,947609048752241E-003	1,000000000000000E+000
3,5253093E-001	-1,899496755913688E-003	1,000000000000000E+000
3,4950259E-001	-1,850295694024345E-003	1,000000000000000E+000
3,4645945E-001	-1,808594102514430E-003	1,000000000000000E+000
3,4353635E-001	-1,763102492573003E-003	1,000000000000000E+000
3,4050789E-001	-1,724249012035065E-003	1,000000000000000E+000
3,3751675E-001	-1,685550618837420E-003	1,000000000000000E+000
3,3451504E-001	-1,652807403218444E-003	1,000000000000000E+000
3,3151856E-001	-1,612993393181390E-003	1,000000000000000E+000
3,2848921E-001	-1,585333952568695E-003	1,000000000000000E+000
3,2546300E-001	-1,548418260620701E-003	1,000000000000000E+000
3,2245663E-001	-1,518585629282147E-003	1,000000000000000E+000
3,1952956E-001	-1,489570900038116E-003	1,000000000000000E+000
3,1649062E-001	-1,457017252961242E-003	1,000000000000000E+000
3,1345809E-001	-1,429961014288151E-003	1,000000000000000E+000
3,1053171E-001	-1,405225328644334E-003	1,000000000000000E+000
3,0752674E-001	-1,380258858930301E-003	1,000000000000000E+000
3,0454835E-001	-1,351746177632642E-003	1,000000000000000E+000
3,0154231E-001	-1,333819108311921E-003	1,000000000000000E+000
2,9848111E-001	-1,312282838130868E-003	1,000000000000000E+000
2,9549977E-001	-1,286875110612520E-003	1,000000000000000E+000
2,9256466E-001	-1,267559701437112E-003	1,000000000000000E+000
2,8950447E-001	-1,245610991734337E-003	1,000000000000000E+000
2,8652075E-001	-1,229800602516602E-003	1,000000000000000E+000
2,8346908E-001	-1,215033024184072E-003	1,000000000000000E+000
2,8047690E-001	-1,200576656525864E-003	1,000000000000000E+000
2,7751654E-001	-1,184472326424414E-003	1,000000000000000E+000
2,7451873E-001	-1,169539972337354E-003	1,000000000000000E+000
2,7152464E-001	-1,160281922872075E-003	1,000000000000000E+000
2,6853460E-001	-1,150525203107657E-003	1,000000000000000E+000
2,6557848E-001	-1,137883875459903E-003	1,000000000000000E+000
2,6251724E-001	-1,131199783785610E-003	1,000000000000000E+000
2,5950488E-001	-1,125497148475712E-003	1,000000000000000E+000
2,5649568E-001	-1,113773633821896E-003	1,000000000000000E+000
2,5349709E-001	-1,112834458982128E-003	1,000000000000000E+000
2,5051019E-001	-1,113099295727392E-003	1,000000000000000E+000
2,4755663E-001	-1,107071546190981E-003	1,000000000000000E+000
2,4452367E-001	-1,106165028293681E-003	1,000000000000000E+000
2,4150066E-001	-1,110011100899182E-003	1,000000000000000E+000
2,3854348E-001	-1,111851526445267E-003	1,000000000000000E+000
2,3553535E-001	-1,115104855038091E-003	1,000000000000000E+000
2,3254208E-001	-1,115915950373793E-003	1,000000000000000E+000
2,2957112E-001	-1,124694018440991E-003	1,000000000000000E+000
2,2653632E-001	-1,126069729945108E-003	1,000000000000000E+000
2,2351342E-001	-1,129107169976631E-003	1,000000000000000E+000
2,2054884E-001	-1,139666535751352E-003	1,000000000000000E+000
2,1754709E-001	-1,133662668586267E-003	1,000000000000000E+000
2,1446140E-001	-1,146290474320506E-003	1,000000000000000E+000
2,1152973E-001	-1,147095424738776E-003	1,000000000000000E+000
2,0851842E-001	-1,149425892093481E-003	1,000000000000000E+000
2,0555125E-001	-1,148692874201742E-003	1,000000000000000E+000
2,0248942E-001	-1,150385613605098E-003	1,000000000000000E+000
1,9944519E-001	-1,149158372991930E-003	1,000000000000000E+000
1,9651559E-001	-1,146346090890822E-003	1,000000000000000E+000
1,9352128E-001	-1,145008859048932E-003	1,000000000000000E+000
1,9052272E-001	-1,144160897203213E-003	1,000000000000000E+000
1,8753687E-001	-1,139248174961284E-003	1,000000000000000E+000
1,8455313E-001	-1,134958613303646E-003	1,000000000000000E+000
1,8147810E-001	-1,127027584503948E-003	1,000000000000000E+000
1,7851166E-001	-1,125530129437823E-003	1,000000000000000E+000
1,7548734E-001	-1,115542956788073E-003	1,000000000000000E+000
1,7253122E-001	-1,110455056520045E-003	1,000000000000000E+000
1,6958787E-001	-1,100553397469110E-003	1,000000000000000E+000
1,6652027E-001	-1,088928980788793E-003	1,000000000000000E+000
1,6356841E-001	-1,082209252480527E-003	1,000000000000000E+000
1,6048487E-001	-1,073833635901352E-003	1,000000000000000E+000
1,5753601E-001	-1,064434101901181E-003	1,000000000000000E+000
1,5455145E-001	-1,056401378744652E-003	1,000000000000000E+000
1,5151462E-001	-1,044496333279294E-003	1,000000000000000E+000
1,4854790E-001	-1,034688873964500E-003	1,000000000000000E+000
1,4553021E-001	-1,019692363870429E-003	1,000000000000000E+000
1,4256030E-001	-1,016613206482772E-003	1,000000000000000E+000
1,3948952E-001	-1,007385906017831E-003	1,000000000000000E+000
1,3652492E-001	-1,002067390470249E-003	1,000000000000000E+000
1,3356245E-001	-9,929755221395158E-004	1,000000000000000E+000
1,3057899E-001	-9,824265475406966E-004	1,000000000000000E+000
1,2755466E-001	-9,782251233493421E-004	1,000000000000000E+000
1,2450087E-001	-9,701690691054123E-004	1,000000000000000E+000
1,2156599E-001	-9,673967848159290E-004	1,000000000000000E+000
1,1851433E-001	-9,665878206428641E-004	1,000000000000000E+000
1,1554655E-001	-9,666632724305620E-004	1,000000000000000E+000
1,1254690E-001	-9,614988966178979E-004	1,000000000000000E+000
1,0958771E-001	-9,679129145131853E-004	1,000000000000000E+000
1,0654655E-001	-9,662902778549247E-004	1,000000000000000E+000
1,0352886E-001	-9,706209771417097E-004	1,000000000000000E+000
1,0062478E-001	-9,747041832866062E-004	1,000000000000000E+000
9,7560368E-002	-9,805673006483813E-004	1,000000000000000E+000
9,4566040E-002	-9,843161011662783E-004	1,000000000000000E+000
9,1570638E-002	-9,956456233092392E-004	1,000000000000000E+000
8,8585377E-002	-1,006215964704769E-003	1,000000000000000E+000
8,5522525E-002	-1,010627962650918E-003	1,000000000000000E+000
8,2567476E-002	-1,028098372289545E-003	1,000000000000000E+000
7,9582699E-002	-1,034397480053687E-003	1,000000000000000E+000
7,6543778E-002	-1,049892837143736E-003	1,000000000000000E+000
7,3567495E-002	-1,059099437030816E-003	1,000000000000000E+000
7,0524320E-002	-1,067048969003191E-003	1,000000000000000E+000
6,7574576E-002	-1,077046832984777E-003	1,000000000000000E+000
6,4557947E-002	-1,085840891569215E-003	1,000000000000000E+000
6,1562821E-002	-1,097886847533121E-003	1,000000000000000E+000
5,8513012E-002	-1,102677181002047E-003	1,000000000000000E+000
5,5518679E-002	-1,112675867117345E-003	1,000000000000000E+000
5,2567888E-002	-1,110355039276322E-003	1,000000000000000E+000
4,9566120E-002	-1,122405620013265E-003	1,000000000000000E+000
4,6555858E-002	-1,124159546731405E-003	1,000000000000000E+000
4,3551970E-002	-1,123696785853640E-003	1,000000000000000E+000
4,0565860E-002	-1,129603161617376E-003	1,000000000000000E+000
3,7521895E-002	-1,131390650747945E-003	1,000000000000000E+000
3,4570038E-002	-1,131237498060206E-003	1,000000000000000E+000
3,1522613E-002	-1,132724783023635E-003	1,000000000000000E+000
2,8550582E-002	-1,126786375339375E-003	1,000000000000000E+000
2,5521206E-002	-1,132623139966361E-003	1,000000000000000E+000
2,2514133E-002	-1,132325068747563E-003	1,000000000000000E+000
1,9537855E-002	-1,123419994569778E-003	1,000000000000000E+000
1,6557325E-002	-1,120639167659847E-003	1,000000000000000E+000
1,3546314E-002	-1,120366660567158E-003	1,000000000000000E+000
1,0579280E-002	-1,119439348835769E-003	1,000000000000000E+000
7,5732684E-003	-1,110027761703703E-003	1,000000000000000E+000
4,5768130E-003	-1,105631384888343E-003	1,000000000000000E+000
1,5952230E-003	-1,105275817823321E-003	1,000000000000000E+000
-1,9606702E-004	-1,103250522111706E-003	1,000000000000000E+000