File: fig_4_nife_ceo2/Activity_1_CV/Ni50Fe50_Activity1_CV1_02_CV_C01.txt
Ewe/V	<I>/mA	cycle number
1,8872067E-004	-5,038733482360840E-001	1,000000000000000E+000
3,7585583E-003	-1,629236539379139E-002	1,000000000000000E+000
7,6416340E-003	-8,633598493350853E-003	1,000000000000000E+000
1,1587356E-002	-5,931211722418922E-003	1,000000000000000E+000
1,5754322E-002	-4,480561850447137E-003	1,000000000000000E+000
1,9873798E-002	-3,579644925010403E-003	1,000000000000000E+000
2,3923580E-002	-2,951330049153490E-003	1,000000000000000E+000
2,7880043E-002	-2,489412262018958E-003	1,000000000000000E+000
3,1842630E-002	-2,138082692434602E-003	1,000000000000000E+000
3,5929572E-002	-1,851099845068954E-003	1,000000000000000E+000
4,0046249E-002	-1,619465588214498E-003	1,000000000000000E+000
4,3899592E-002	-1,426146442908151E-003	1,000000000000000E+000
4,7865495E-002	-1,262859793563962E-003	1,000000000000000E+000
5,1938623E-002	-1,120769613634758E-003	1,000000000000000E+000
5,5961866E-002	-9,981995995849875E-004	1,000000000000000E+000
5,9924576E-002	-8,898887188194815E-004	1,000000000000000E+000
6,3869536E-002	-7,965477902043749E-004	1,000000000000000E+000
6,7952991E-002	-7,067794772338534E-004	1,000000000000000E+000
7,1887039E-002	-6,348341317508714E-004	1,000000000000000E+000
7,5954877E-002	-5,705526524631970E-004	1,000000000000000E+000
7,9861306E-002	-5,110348648154212E-004	1,000000000000000E+000
8,3903663E-002	-4,567923441839402E-004	1,000000000000000E+000
8,7985292E-002	-4,094922709402624E-004	1,000000000000000E+000
9,1963612E-002	-3,720722478784712E-004	1,000000000000000E+000
9,5859751E-002	-3,357628839857295E-004	1,000000000000000E+000
9,9925451E-002	-3,054061886058595E-004	1,000000000000000E+000
1,0390303E-001	-2,768242178791871E-004	1,000000000000000E+000
1,0778611E-001	-2,477581363135271E-004	1,000000000000000E+000
1,1190596E-001	-2,178230963596497E-004	1,000000000000000E+000
1,1581134E-001	-1,997664583897503E-004	1,000000000000000E+000
1,1991528E-001	-1,744386730787102E-004	1,000000000000000E+000
1,2383445E-001	-1,594276647715544E-004	1,000000000000000E+000
1,2791599E-001	-1,419554588973455E-004	1,000000000000000E+000
1,3184799E-001	-1,227918790449672E-004	1,000000000000000E+000
1,3585424E-001	-1,075726518022248E-004	1,000000000000000E+000
1,3988811E-001	-8,963031659025856E-005	1,000000000000000E+000
1,4380835E-001	-8,046762187734159E-005	1,000000000000000E+000
1,4786237E-001	-6,296102462051770E-005	1,000000000000000E+000
1,5186863E-001	-5,548556918031692E-005	1,000000000000000E+000
1,5589187E-001	-4,341187025982131E-005	1,000000000000000E+000
1,5983014E-001	-3,464347258119548E-005	1,000000000000000E+000
1,6392764E-001	-2,325155064922369E-005	1,000000000000000E+000
1,6777149E-001	-1,081685558099730E-005	1,000000000000000E+000
1,7181809E-001	-8,826699599784042E-006	1,000000000000000E+000
1,7584981E-001	3,412474529789439E-006	1,000000000000000E+000
1,7986669E-001	8,121638398532713E-006	1,000000000000000E+000
1,8384215E-001	2,057471637776865E-005	1,000000000000000E+000
1,8784942E-001	2,601388450655827E-005	1,000000000000000E+000
1,9189285E-001	3,236949953041115E-005	1,000000000000000E+000
1,9584070E-001	4,030000436854248E-005	1,000000000000000E+000
1,9972944E-001	3,722910388665368E-005	1,000000000000000E+000
2,0381072E-001	4,443065976413772E-005	1,000000000000000E+000
2,0779997E-001	5,111844718816389E-005	1,000000000000000E+000
2,1177435E-001	5,973412665807778E-005	1,000000000000000E+000
2,1578169E-001	6,626825970482164E-005	1,000000000000000E+000
2,1983039E-001	7,163471130264753E-005	1,000000000000000E+000
2,2380586E-001	7,636715469747882E-005	1,000000000000000E+000
2,2784714E-001	8,405910260391326E-005	1,000000000000000E+000
2,3190752E-001	8,614611939951377E-005	1,000000000000000E+000
2,3580272E-001	9,537102094855487E-005	1,000000000000000E+000
2,3980427E-001	1,083270000363026E-004	1,000000000000000E+000
2,4384768E-001	1,173376996548080E-004	1,000000000000000E+000
2,4788260E-001	1,278524388749606E-004	1,000000000000000E+000
2,5182623E-001	1,346179183479880E-004	1,000000000000000E+000
2,5584626E-001	1,422564687500259E-004	1,000000000000000E+000
2,5987056E-001	1,577592770424716E-004	1,000000000000000E+000
2,6386780E-001	1,637551475400327E-004	1,000000000000000E+000
2,6783419E-001	1,749726163187068E-004	1,000000000000000E+000
2,7181974E-001	1,839718966653967E-004	1,000000000000000E+000
2,7586049E-001	1,978592129504133E-004	1,000000000000000E+000
2,7978605E-001	2,074184398113679E-004	1,000000000000000E+000
2,8384960E-001	2,176597482913397E-004	1,000000000000000E+000
2,8793979E-001	2,298098353380913E-004	1,000000000000000E+000
2,9185575E-001	2,410913334488156E-004	1,000000000000000E+000
2,9579192E-001	2,560741517477257E-004	1,000000000000000E+000
2,9979780E-001	2,666446686063876E-004	1,000000000000000E+000
3,0382138E-001	2,842949247792346E-004	1,000000000000000E+000
3,0789775E-001	2,980960793336354E-004	1,000000000000000E+000
3,1179783E-001	3,108948225367925E-004	1,000000000000000E+000
3,1585392E-001	3,346623932599943E-004	1,000000000000000E+000
3,1990051E-001	3,470168057427567E-004	1,000000000000000E+000
3,2385474E-001	3,663742593903018E-004	1,000000000000000E+000
3,2777500E-001	3,864073570017642E-004	1,000000000000000E+000
3,3184603E-001	4,056684166633745E-004	1,000000000000000E+000
3,3586192E-001	4,220032925899547E-004	1,000000000000000E+000
3,3984363E-001	4,349901198179244E-004	1,000000000000000E+000
3,4383079E-001	4,472755144208068E-004	1,000000000000000E+000
3,4795699E-001	4,569863557376073E-004	1,000000000000000E+000
3,5179865E-001	4,718039372061536E-004	1,000000000000000E+000
3,5577306E-001	4,818755168016159E-004	1,000000000000000E+000
3,5985470E-001	4,917431304960768E-004	1,000000000000000E+000
3,6380464E-001	4,929137681888391E-004	1,000000000000000E+000
3,6783642E-001	4,995575785284008E-004	1,000000000000000E+000
3,7186521E-001	5,079416011597275E-004	1,000000000000000E+000
3,7594232E-001	5,137714915133782E-004	1,000000000000000E+000
3,7987953E-001	5,166884686761165E-004	1,000000000000000E+000
3,8387519E-001	5,198549626373936E-004	1,000000000000000E+000
3,8784850E-001	5,235712915835026E-004	1,000000000000000E+000
3,9183781E-001	5,264203092521541E-004	1,000000000000000E+000
3,9585137E-001	5,289545027766041E-004	1,000000000000000E+000
3,9986247E-001	5,373355433795669E-004	1,000000000000000E+000
4,0386602E-001	5,369973331902978E-004	1,000000000000000E+000
4,0788078E-001	5,361966515579387E-004	1,000000000000000E+000
4,1189873E-001	5,419436390046066E-004	1,000000000000000E+000
4,1585401E-001	5,443614968096717E-004	1,000000000000000E+000
4,1985178E-001	5,568186126741078E-004	1,000000000000000E+000
4,2389515E-001	5,589452271196355E-004	1,000000000000000E+000
4,2781115E-001	5,734009395085655E-004	1,000000000000000E+000
4,3185243E-001	5,924743195062383E-004	1,000000000000000E+000
4,3585512E-001	6,248533687299301E-004	1,000000000000000E+000
4,3986705E-001	6,575317347390641E-004	1,000000000000000E+000
4,4373679E-001	6,999406834672043E-004	1,000000000000000E+000
4,4788694E-001	7,640148475509109E-004	1,000000000000000E+000
4,5187303E-001	8,437643041536574E-004	1,000000000000000E+000
4,5586443E-001	9,410960464226253E-004	1,000000000000000E+000
4,5987919E-001	1,048432535984801E-003	1,000000000000000E+000
4,6391296E-001	1,183380487125763E-003	1,000000000000000E+000
4,6788102E-001	1,334387195193170E-003	1,000000000000000E+000
4,7188702E-001	1,518353424299408E-003	1,000000000000000E+000
4,7588924E-001	1,740583666988203E-003	1,000000000000000E+000
4,7989553E-001	2,010223900880412E-003	1,000000000000000E+000
4,8381260E-001	2,356898272822506E-003	1,000000000000000E+000
4,8785812E-001	2,770016959303720E-003	1,000000000000000E+000
4,9182832E-001	3,266716268111050E-003	1,000000000000000E+000
4,9585366E-001	3,844739056045550E-003	1,000000000000000E+000
4,9987686E-001	4,500496670343201E-003	1,000000000000000E+000
5,0385231E-001	5,196225371152636E-003	1,000000000000000E+000
5,0786602E-001	5,890162663936910E-003	1,000000000000000E+000
5,1185530E-001	6,586342788992505E-003	1,000000000000000E+000
5,1580316E-001	7,299411470517138E-003	1,000000000000000E+000
5,1982421E-001	8,030509698688335E-003	1,000000000000000E+000
5,2383363E-001	8,892442759898811E-003	1,000000000000000E+000
5,2778995E-001	9,862471982409582E-003	1,000000000000000E+000
5,3184718E-001	1,108928925192504E-002	1,000000000000000E+000
5,3591019E-001	1,238189753699585E-002	1,000000000000000E+000
5,3992343E-001	1,387117104222074E-002	1,000000000000000E+000
5,4387152E-001	1,565026068497077E-002	1,000000000000000E+000
5,4792106E-001	1,794625117109308E-002	1,000000000000000E+000
5,5193150E-001	2,101617669707792E-002	1,000000000000000E+000
5,5585921E-001	2,511003740156131E-002	1,000000000000000E+000
5,5993438E-001	3,063780429420349E-002	1,000000000000000E+000
5,6397891E-001	3,791079619269017E-002	1,000000000000000E+000
5,6795651E-001	4,702947298228499E-002	1,000000000000000E+000
5,7191795E-001	5,822802399198773E-002	1,000000000000000E+000
5,7591593E-001	7,202838573873027E-002	1,000000000000000E+000
5,7993853E-001	8,873291006603434E-002	1,000000000000000E+000
5,8400798E-001	1,090933077498560E-001	1,000000000000000E+000
5,8806098E-001	1,331218302296375E-001	1,000000000000000E+000
5,9207892E-001	1,592808237516843E-001	1,000000000000000E+000
5,9600443E-001	1,902318476739420E-001	1,000000000000000E+000
5,9995019E-001	2,247689118705982E-001	1,000000000000000E+000
6,0405093E-001	2,643423930355371E-001	1,000000000000000E+000
6,0810411E-001	3,070340474032833E-001	1,000000000000000E+000
6,1199337E-001	3,554329142975456E-001	1,000000000000000E+000
6,1603040E-001	4,080367832573408E-001	1,000000000000000E+000
6,2003666E-001	4,670655060001994E-001	1,000000000000000E+000
6,2405241E-001	5,306606376311356E-001	1,000000000000000E+000
6,2800032E-001	6,011282323929343E-001	1,000000000000000E+000
6,3205326E-001	6,783037853433567E-001	1,000000000000000E+000
6,3601387E-001	7,615302864065123E-001	1,000000000000000E+000
6,3996917E-001	8,561377144437703E-001	1,000000000000000E+000
6,4402980E-001	9,517761894069885E-001	1,000000000000000E+000
6,4797950E-001	1,056238869403629E+000	1,000000000000000E+000
6,5210778E-001	1,172611243811662E+000	1,000000000000000E+000
6,5621066E-001	1,288236972772418E+000	1,000000000000000E+000
6,6007781E-001	1,416281762822209E+000	1,000000000000000E+000
6,6407776E-001	1,549634774171174E+000	1,000000000000000E+000
6,6816258E-001	1,690196237241736E+000	1,000000000000000E+000
6,7211014E-001	1,839171588891279E+000	1,000000000000000E+000
6,7621541E-001	1,991165800328428E+000	1,000000000000000E+000
6,8010527E-001	2,156954244498973E+000	1,000000000000000E+000
6,8408775E-001	2,320658138870769E+000	1,000000000000000E+000
6,8808019E-001	2,493787816508160E+000	1,000000000000000E+000
6,9210237E-001	2,670107868134703E+000	1,000000000000000E+000
6,9614995E-001	2,853916272233825E+000	1,000000000000000E+000
7,0009685E-001	3,049004249021309E+000	1,000000000000000E+000
7,0409989E-001	3,247897066327980E+000	1,000000000000000E+000
7,0813984E-001	3,447768291438180E+000	1,000000000000000E+000
7,1208370E-001	3,656536360210033E+000	1,000000000000000E+000
7,1606869E-001	3,866480713697534E+000	1,000000000000000E+000
7,2012693E-001	4,081493403162831E+000	1,000000000000000E+000
7,2408545E-001	4,302346329874183E+000	1,000000000000000E+000
7,2808003E-001	4,533537483674891E+000	1,000000000000000E+000
7,3213083E-001	4,762349501691418E+000	1,000000000000000E+000
7,3614442E-001	4,998035303724578E+000	1,000000000000000E+000
7,4009550E-001	5,232872137778756E+000	1,000000000000000E+000
7,4412417E-001	5,472182703181524E+000	1,000000000000000E+000
7,4813455E-001	5,717618139929499E+000	1,000000000000000E+000
7,5220233E-001	5,967364618803913E+000	1,000000000000000E+000
7,5611514E-001	6,214343769277320E+000	1,000000000000000E+000
7,6010346E-001	6,461172213697658E+000	1,000000000000000E+000
7,6410854E-001	6,732020656740843E+000	1,000000000000000E+000
7,6812440E-001	6,990248623889045E+000	1,000000000000000E+000
7,7211684E-001	7,252400496784524E+000	1,000000000000000E+000
7,7609652E-001	7,523292829525445E+000	1,000000000000000E+000
7,8008825E-001	7,794166960443640E+000	1,000000000000000E+000
7,8413129E-001	8,055209267571939E+000	1,000000000000000E+000
7,8813446E-001	8,334679677237730E+000	1,000000000000000E+000
7,9212797E-001	8,619964832216198E+000	1,000000000000000E+000
7,9615432E-001	8,891579686514124E+000	1,000000000000000E+000
8,0009151E-001	9,167807252701692E+000	1,000000000000000E+000
8,0407542E-001	9,454877976184576E+000	1,000000000000000E+000
8,0820459E-001	9,707424353009145E+000	1,000000000000000E+000
8,1206030E-001	1,002212557419628E+001	1,000000000000000E+000
8,1608289E-001	1,030627043929825E+001	1,000000000000000E+000
8,2014930E-001	1,059914380879633E+001	1,000000000000000E+000
8,2412255E-001	1,088985603223310E+001	1,000000000000000E+000
8,2819784E-001	1,119278726569648E+001	1,000000000000000E+000
8,3215213E-001	1,148121750172304E+001	1,000000000000000E+000
8,3619976E-001	1,178629658376281E+001	1,000000000000000E+000
8,4021986E-001	1,207427030524699E+001	1,000000000000000E+000
8,4421331E-001	1,236383864195705E+001	1,000000000000000E+000
8,4821004E-001	1,266328120488424E+001	1,000000000000000E+000
8,5221416E-001	1,297245357036206E+001	1,000000000000000E+000
8,5622042E-001	1,324194769672800E+001	1,000000000000000E+000
8,6019266E-001	1,355095074209225E+001	1,000000000000000E+000
8,6416918E-001	1,384986715170800E+001	1,000000000000000E+000
8,6818290E-001	1,416491800776416E+001	1,000000000000000E+000
8,7216669E-001	1,444502807014923E+001	1,000000000000000E+000
8,7607324E-001	1,476581232847803E+001	1,000000000000000E+000
8,8019174E-001	1,505143788878274E+001	1,000000000000000E+000
8,8421637E-001	1,537995610242525E+001	1,000000000000000E+000
8,8817370E-001	1,568472375350744E+001	1,000000000000000E+000
8,9221507E-001	1,595233785957439E+001	1,000000000000000E+000
8,9616287E-001	1,628431112777076E+001	1,000000000000000E+000
9,0020311E-001	1,661412237966410E+001	1,000000000000000E+000
9,0419346E-001	1,692564242159162E+001	1,000000000000000E+000
9,0818274E-001	1,723452975406673E+001	1,000000000000000E+000
9,1222715E-001	1,755786556356884E+001	1,000000000000000E+000
9,1620040E-001	1,785868894744146E+001	1,000000000000000E+000
9,2011964E-001	1,819076857991234E+001	1,000000000000000E+000
9,2413658E-001	1,851269761924036E+001	1,000000000000000E+000
9,2814171E-001	1,884392510384930E+001	1,000000000000000E+000
9,3221796E-001	1,917214977619599E+001	1,000000000000000E+000
9,3617117E-001	1,949293137150832E+001	1,000000000000000E+000
9,4018167E-001	1,979975531390464E+001	1,000000000000000E+000
9,4417202E-001	2,016067508126604E+001	1,000000000000000E+000
9,4817823E-001	2,048798313216548E+001	1,000000000000000E+000
9,5218241E-001	2,083409320552043E+001	1,000000000000000E+000
9,5620561E-001	2,115697917646287E+001	1,000000000000000E+000
9,6017796E-001	2,151437160879578E+001	1,000000000000000E+000
9,6414590E-001	2,183190519171774E+001	1,000000000000000E+000
9,6821481E-001	2,217703247502826E+001	1,000000000000000E+000
9,7211701E-001	2,251849081254068E+001	1,000000000000000E+000
9,7620922E-001	2,286782198819981E+001	1,000000000000000E+000
9,8013258E-001	2,318167022120656E+001	1,000000000000000E+000
9,8419309E-001	2,354796100689975E+001	1,000000000000000E+000
9,8817825E-001	2,389335185620655E+001	1,000000000000000E+000
9,9218225E-001	2,425919449315870E+001	1,000000000000000E+000
9,9620223E-001	2,457847699651381E+001	1,000000000000000E+000
9,9976707E-001	2,490186804168070E+001	1,000000000000000E+000
9,9722481E-001	2,465068128400912E+001	1,000000000000000E+000
9,9326211E-001	2,422891764900308E+001	1,000000000000000E+000
9,8926115E-001	2,380810264584159E+001	1,000000000000000E+000
9,8527193E-001	2,339875902245637E+001	1,000000000000000E+000
9,8121893E-001	2,301028967874385E+001	1,000000000000000E+000
9,7733688E-001	2,260499302735400E+001	1,000000000000000E+000
9,7328925E-001	2,221557375268327E+001	1,000000000000000E+000
9,6922678E-001	2,182963736960127E+001	1,000000000000000E+000
9,6518224E-001	2,145594016656852E+001	1,000000000000000E+000
9,6129173E-001	2,109877606259997E+001	1,000000000000000E+000
9,5723552E-001	2,070812763878544E+001	1,000000000000000E+000
9,5324516E-001	2,033962948725059E+001	1,000000000000000E+000
9,4928139E-001	1,999762371756867E+001	1,000000000000000E+000
9,4525492E-001	1,957711804810208E+001	1,000000000000000E+000
9,4125521E-001	1,927494396468683E+001	1,000000000000000E+000
9,3729788E-001	1,892169701728693E+001	1,000000000000000E+000
9,3328518E-001	1,857374519717933E+001	1,000000000000000E+000
9,2930448E-001	1,822298192937347E+001	1,000000000000000E+000
9,2523134E-001	1,789405023984085E+001	1,000000000000000E+000
9,2122489E-001	1,757098764492005E+001	1,000000000000000E+000
9,1723371E-001	1,723608018265292E+001	1,000000000000000E+000
9,1330594E-001	1,691309601541559E+001	1,000000000000000E+000
9,0927702E-001	1,656728523656545E+001	1,000000000000000E+000
9,0528601E-001	1,623859539323922E+001	1,000000000000000E+000
9,0126389E-001	1,591077772924956E+001	1,000000000000000E+000
8,9727247E-001	1,559754442127920E+001	1,000000000000000E+000
8,9324182E-001	1,529227225796706E+001	1,000000000000000E+000
8,8927382E-001	1,497210664895113E+001	1,000000000000000E+000
8,8526756E-001	1,466209268380732E+001	1,000000000000000E+000
8,8120967E-001	1,435263281882010E+001	1,000000000000000E+000
8,7723064E-001	1,402874614497702E+001	1,000000000000000E+000
8,7332487E-001	1,373433906711188E+001	1,000000000000000E+000
8,6922663E-001	1,340471427673117E+001	1,000000000000000E+000
8,6522675E-001	1,312462638903096E+001	1,000000000000000E+000
8,6126727E-001	1,282619276595497E+001	1,000000000000000E+000
8,5721219E-001	1,252692083071690E+001	1,000000000000000E+000
8,5325050E-001	1,221096849590202E+001	1,000000000000000E+000
8,4929734E-001	1,193796422144995E+001	1,000000000000000E+000
8,4529954E-001	1,164651622526821E+001	1,000000000000000E+000
8,4124029E-001	1,137093352021272E+001	1,000000000000000E+000
8,3718723E-001	1,107492822906507E+001	1,000000000000000E+000
8,3328187E-001	1,078187350114455E+001	1,000000000000000E+000
8,2926923E-001	1,050351245062690E+001	1,000000000000000E+000
8,2519501E-001	1,021732822587703E+001	1,000000000000000E+000
8,2123667E-001	9,937703042276361E+000	1,000000000000000E+000
8,1727922E-001	9,664072774502685E+000	1,000000000000000E+000
8,1328785E-001	9,390624211150794E+000	1,000000000000000E+000
8,0920327E-001	9,118039122576764E+000	1,000000000000000E+000
8,0519032E-001	8,847345516186991E+000	1,000000000000000E+000
8,0130905E-001	8,564312184731207E+000	1,000000000000000E+000
7,9725760E-001	8,306233116153123E+000	1,000000000000000E+000
7,9327142E-001	8,043381795793970E+000	1,000000000000000E+000
7,8929490E-001	7,780220827953627E+000	1,000000000000000E+000
7,8525782E-001	7,518026681038222E+000	1,000000000000000E+000
7,8125376E-001	7,266660814179843E+000	1,000000000000000E+000
7,7724862E-001	7,006339671863216E+000	1,000000000000000E+000
7,7328926E-001	6,757460257928244E+000	1,000000000000000E+000
7,6923609E-001	6,516787969065899E+000	1,000000000000000E+000
7,6522034E-001	6,264717516219719E+000	1,000000000000000E+000
7,6123214E-001	6,020205753122610E+000	1,000000000000000E+000
7,5719297E-001	5,784353313836643E+000	1,000000000000000E+000
7,5327909E-001	5,542297805754494E+000	1,000000000000000E+000
7,4922824E-001	5,313495689035804E+000	1,000000000000000E+000
7,4528682E-001	5,082262990392237E+000	1,000000000000000E+000
7,4127954E-001	4,863158617430557E+000	1,000000000000000E+000
7,3726052E-001	4,641805695143759E+000	1,000000000000000E+000
7,3322028E-001	4,411778054337375E+000	1,000000000000000E+000
7,2915876E-001	4,201447346178043E+000	1,000000000000000E+000
7,2523433E-001	3,999473121194637E+000	1,000000000000000E+000
7,2118664E-001	3,798425651157523E+000	1,000000000000000E+000
7,1726012E-001	3,600606392807187E+000	1,000000000000000E+000
7,1320069E-001	3,407330351452984E+000	1,000000000000000E+000
7,0918697E-001	3,212298621125787E+000	1,000000000000000E+000
7,0519251E-001	3,033679661533185E+000	1,000000000000000E+000
7,0123625E-001	2,851347054325245E+000	1,000000000000000E+000
6,9729787E-001	2,677827519404772E+000	1,000000000000000E+000
6,9316739E-001	2,511882068230321E+000	1,000000000000000E+000
6,8920577E-001	2,348133317467308E+000	1,000000000000000E+000
6,8519843E-001	2,187613920559961E+000	1,000000000000000E+000
6,8117517E-001	2,035466930628358E+000	1,000000000000000E+000
6,7719334E-001	1,888933494450555E+000	1,000000000000000E+000
6,7322987E-001	1,748810588674985E+000	1,000000000000000E+000
6,6922867E-001	1,614104864683823E+000	1,000000000000000E+000
6,6519535E-001	1,485402715226964E+000	1,000000000000000E+000
6,6122144E-001	1,364749554046287E+000	1,000000000000000E+000
6,5726197E-001	1,244821819546473E+000	1,000000000000000E+000
6,5318775E-001	1,135166798293792E+000	1,000000000000000E+000
6,4919102E-001	1,031234991193968E+000	1,000000000000000E+000
6,4518267E-001	9,324756308021609E-001	1,000000000000000E+000
6,4122951E-001	8,403119671405559E-001	1,000000000000000E+000
6,3721198E-001	7,558638349802509E-001	1,000000000000000E+000
6,3319582E-001	6,749232317069680E-001	1,000000000000000E+000
6,2918526E-001	6,004631683618964E-001	1,000000000000000E+000
6,2523532E-001	5,309230155330504E-001	1,000000000000000E+000
6,2123966E-001	4,720869826072676E-001	1,000000000000000E+000
6,1713046E-001	4,131383075212005E-001	1,000000000000000E+000
6,1309344E-001	3,604223009794438E-001	1,000000000000000E+000
6,0902661E-001	3,138348189248061E-001	1,000000000000000E+000
6,0510743E-001	2,708194883003863E-001	1,000000000000000E+000
6,0113835E-001	2,343369167350962E-001	1,000000000000000E+000
5,9716296E-001	1,996140962935431E-001	1,000000000000000E+000
5,9311414E-001	1,703593387266369E-001	1,000000000000000E+000
5,8914083E-001	1,431961076053249E-001	1,000000000000000E+000
5,8511657E-001	1,198692446017040E-001	1,000000000000000E+000
5,8112514E-001	9,979397224160991E-002	1,000000000000000E+000
5,7707113E-001	8,211355138033682E-002	1,000000000000000E+000
5,7312012E-001	6,740692478938293E-002	1,000000000000000E+000
5,6911707E-001	5,446096617082274E-002	1,000000000000000E+000
5,6491184E-001	4,336203305696085E-002	1,000000000000000E+000
5,6093150E-001	3,441406456624796E-002	1,000000000000000E+000
5,5698472E-001	2,712799656065501E-002	1,000000000000000E+000
5,5290842E-001	2,117258346760487E-002	1,000000000000000E+000
5,4892653E-001	1,635359290959798E-002	1,000000000000000E+000
5,4494148E-001	1,244476102023276E-002	1,000000000000000E+000
5,4094273E-001	9,376738365840437E-003	1,000000000000000E+000
5,3693998E-001	6,945580939559742E-003	1,000000000000000E+000
5,3288561E-001	5,048051444272981E-003	1,000000000000000E+000
5,2883267E-001	3,542866748628297E-003	1,000000000000000E+000
5,2475631E-001	2,421030487468973E-003	1,000000000000000E+000
5,2082652E-001	1,565308755995504E-003	1,000000000000000E+000
5,1682669E-001	9,236147927281103E-004	1,000000000000000E+000
5,1282471E-001	3,943348836632108E-004	1,000000000000000E+000
5,0885880E-001	1,226115710877163E-005	1,000000000000000E+000
5,0482601E-001	-3,088009165531256E-004	1,000000000000000E+000
5,0085461E-001	-5,712911943090754E-004	1,000000000000000E+000
4,9677950E-001	-8,061048663261594E-004	1,000000000000000E+000
4,9279344E-001	-1,041027709768874E-003	1,000000000000000E+000
4,8878831E-001	-1,270980451299527E-003	1,000000000000000E+000
4,8486805E-001	-1,539506565038259E-003	1,000000000000000E+000
4,8079172E-001	-1,847163121843735E-003	1,000000000000000E+000
4,7683749E-001	-2,250424293696776E-003	1,000000000000000E+000
4,7278482E-001	-2,782615402723707E-003	1,000000000000000E+000
4,6884727E-001	-3,499841670839124E-003	1,000000000000000E+000
4,6482405E-001	-4,408907525162438E-003	1,000000000000000E+000
4,6079969E-001	-5,538305076239897E-003	1,000000000000000E+000
4,5687419E-001	-6,862933447654720E-003	1,000000000000000E+000
4,5282125E-001	-8,326039724054601E-003	1,000000000000000E+000
4,4883093E-001	-9,804703269294782E-003	1,000000000000000E+000
4,4470683E-001	-1,098641340793460E-002	1,000000000000000E+000
4,4072929E-001	-1,158500724566347E-002	1,000000000000000E+000
4,3670174E-001	-1,140298266968554E-002	1,000000000000000E+000
4,3271148E-001	-1,055121619013865E-002	1,000000000000000E+000
4,2874342E-001	-9,297963536039316E-003	1,000000000000000E+000
4,2475522E-001	-7,853941775791337E-003	1,000000000000000E+000
4,2073414E-001	-6,537871169852411E-003	1,000000000000000E+000
4,1671300E-001	-5,416481272589898E-003	1,000000000000000E+000
4,1279805E-001	-4,530799579208719E-003	1,000000000000000E+000
4,0864530E-001	-3,824239755838656E-003	1,000000000000000E+000
4,0460080E-001	-3,308618939618941E-003	1,000000000000000E+000
4,0063712E-001	-2,907218475309635E-003	1,000000000000000E+000
3,9659578E-001	-2,606103720807093E-003	1,000000000000000E+000
3,9258525E-001	-2,368870889768006E-003	1,000000000000000E+000
3,8864917E-001	-2,168424714752901E-003	1,000000000000000E+000
3,8465878E-001	-2,022379533040056E-003	1,000000000000000E+000
3,8062075E-001	-1,894765289457065E-003	1,000000000000000E+000
3,7662297E-001	-1,795270982240117E-003	1,000000000000000E+000
3,7263054E-001	-1,712747703773884E-003	1,000000000000000E+000
3,6862108E-001	-1,641622769182796E-003	1,000000000000000E+000
3,6455515E-001	-1,581039944107840E-003	1,000000000000000E+000
3,6057672E-001	-1,530538968793169E-003	1,000000000000000E+000
3,5662466E-001	-1,486506224478911E-003	1,000000000000000E+000
3,5255042E-001	-1,439025628036579E-003	1,000000000000000E+000
3,4863660E-001	-1,392707763080502E-003	1,000000000000000E+000
3,4467173E-001	-1,347105740120763E-003	1,000000000000000E+000
3,4059224E-001	-1,312239562285862E-003	1,000000000000000E+000
3,3659768E-001	-1,271265925641359E-003	1,000000000000000E+000
3,3259246E-001	-1,240499920271851E-003	1,000000000000000E+000
3,2864541E-001	-1,212463816120737E-003	1,000000000000000E+000
3,2463410E-001	-1,178669646169367E-003	1,000000000000000E+000
3,2058117E-001	-1,158032666357518E-003	1,000000000000000E+000
3,1663546E-001	-1,127428005339857E-003	1,000000000000000E+000
3,1260794E-001	-1,107690768375986E-003	1,000000000000000E+000
3,0861235E-001	-1,083867863040257E-003	1,000000000000000E+000
3,0461353E-001	-1,062200035642629E-003	1,000000000000000E+000
3,0062580E-001	-1,042968441148026E-003	1,000000000000000E+000
2,9667854E-001	-1,022219164832203E-003	1,000000000000000E+000
2,9258844E-001	-1,003843120105461E-003	1,000000000000000E+000
2,8867880E-001	-9,818857845748270E-004	1,000000000000000E+000
2,8463328E-001	-9,675200269658492E-004	1,000000000000000E+000
2,8065142E-001	-9,444314956472601E-004	1,000000000000000E+000
2,7660587E-001	-9,343213367054414E-004	1,000000000000000E+000
2,7270690E-001	-9,130274509128646E-004	1,000000000000000E+000
2,6860401E-001	-8,994212699677860E-004	1,000000000000000E+000
2,6454794E-001	-8,859719658136540E-004	1,000000000000000E+000
2,6065311E-001	-8,686458955984386E-004	1,000000000000000E+000
2,5662878E-001	-8,584233000297078E-004	1,000000000000000E+000
2,5262469E-001	-8,415614752771553E-004	1,000000000000000E+000
2,4862269E-001	-8,291035067274103E-004	1,000000000000000E+000
2,4464406E-001	-8,186232909067114E-004	1,000000000000000E+000
2,4065481E-001	-8,072383963669771E-004	1,000000000000000E+000
2,3670696E-001	-7,985573673257563E-004	1,000000000000000E+000
2,3259558E-001	-7,843804286290406E-004	1,000000000000000E+000
2,2864652E-001	-7,790641001104350E-004	1,000000000000000E+000
2,2464149E-001	-7,683782983729862E-004	1,000000000000000E+000
2,2059701E-001	-7,592933055169809E-004	1,000000000000000E+000
2,1666297E-001	-7,509655858738314E-004	1,000000000000000E+000
2,1269496E-001	-7,407951382977212E-004	1,000000000000000E+000
2,0864941E-001	-7,339820584757149E-004	1,000000000000000E+000
2,0461981E-001	-7,290293186360333E-004	1,000000000000000E+000
2,0063800E-001	-7,223464443276185E-004	1,000000000000000E+000
1,9665828E-001	-7,097479543629055E-004	1,000000000000000E+000
1,9261900E-001	-7,079100463767756E-004	1,000000000000000E+000
1,8864369E-001	-6,998329556273802E-004	1,000000000000000E+000
1,8465656E-001	-6,952756334788097E-004	1,000000000000000E+000
1,8063544E-001	-6,880892526371311E-004	1,000000000000000E+000
1,7662176E-001	-6,868915801463045E-004	1,000000000000000E+000
1,7262082E-001	-6,844084565229749E-004	1,000000000000000E+000
1,6868572E-001	-6,717512056399694E-004	1,000000000000000E+000
1,6464911E-001	-6,747136972187872E-004	1,000000000000000E+000
1,6066049E-001	-6,718006525735787E-004	1,000000000000000E+000
1,5664008E-001	-6,691502491522529E-004	1,000000000000000E+000
1,5268622E-001	-6,628013403178860E-004	1,000000000000000E+000
1,4863218E-001	-6,636431737449661E-004	1,000000000000000E+000
1,4465567E-001	-6,580194620218402E-004	1,000000000000000E+000
1,4064837E-001	-6,574032698457213E-004	1,000000000000000E+000
1,3664211E-001	-6,603842446776336E-004	1,000000000000000E+000
1,3259766E-001	-6,538582414961412E-004	1,000000000000000E+000
1,2865962E-001	-6,536020134862283E-004	1,000000000000000E+000
1,2467010E-001	-6,495453005368156E-004	1,000000000000000E+000
1,2058740E-001	-6,479045840935460E-004	1,000000000000000E+000
1,1663637E-001	-6,498283600361622E-004	1,000000000000000E+000
1,1266305E-001	-6,512177594835879E-004	1,000000000000000E+000
1,0867485E-001	-6,556981362396755E-004	1,000000000000000E+000
1,0467815E-001	-6,550776297259208E-004	1,000000000000000E+000
1,0065597E-001	-6,605220928381263E-004	1,000000000000000E+000
9,6669920E-002	-6,655694029474510E-004	1,000000000000000E+000
9,2664883E-002	-6,743284298287161E-004	1,000000000000000E+000
8,8687152E-002	-6,797306878957056E-004	1,000000000000000E+000
8,4610827E-002	-6,807515274925282E-004	1,000000000000000E+000
8,0631129E-002	-6,959507901886652E-004	1,000000000000000E+000
7,6653555E-002	-7,015850606214534E-004	1,000000000000000E+000
7,2625004E-002	-7,128551466958188E-004	1,000000000000000E+000
6,8690971E-002	-7,137749977044559E-004	1,000000000000000E+000
6,4639062E-002	-7,245736101851715E-004	1,000000000000000E+000
6,0620073E-002	-7,250121167489756E-004	1,000000000000000E+000
5,6647707E-002	-7,336934553002182E-004	1,000000000000000E+000
5,2667044E-002	-7,356545353855333E-004	1,000000000000000E+000
4,8607703E-002	-7,336793149289693E-004	1,000000000000000E+000
4,4600397E-002	-7,463557170769644E-004	1,000000000000000E+000
4,0706702E-002	-7,396726287588783E-004	1,000000000000000E+000
3,6667537E-002	-7,520371478623071E-004	1,000000000000000E+000
3,2660231E-002	-7,509001169804545E-004	1,000000000000000E+000
2,8650800E-002	-7,580700075200241E-004	1,000000000000000E+000
2,4627563E-002	-7,614234564243851E-004	1,000000000000000E+000
2,0582849E-002	-7,666465330170655E-004	1,000000000000000E+000
1,6656483E-002	-7,670798874648247E-004	1,000000000000000E+000
1,2587590E-002	-7,714203719576761E-004	1,000000000000000E+000
8,6153215E-003	-7,800088888064577E-004	1,000000000000000E+000
4,6388069E-003	-7,795551450097624E-004	1,000000000000000E+000
6,0707750E-004	-7,915934971635345E-004	1,000000000000000E+000
1,3206205E-003	-6,363129482132102E-004	1,000000000000000E+000
5,3215572E-003	-5,173859550276648E-004	1,000000000000000E+000
9,3575343E-003	-4,359244566972146E-004	1,000000000000000E+000
1,3345483E-002	-3,812944756458377E-004	1,000000000000000E+000
1,7394448E-002	-3,330162129561536E-004	1,000000000000000E+000
2,1351852E-002	-2,912642570902816E-004	1,000000000000000E+000
2,5354911E-002	-2,606741824537802E-004	1,000000000000000E+000
2,9352665E-002	-2,245070643028343E-004	1,000000000000000E+000
3,3316433E-002	-1,937876938938973E-004	1,000000000000000E+000
3,7355598E-002	-1,634308992396701E-004	1,000000000000000E+000
4,1372459E-002	-1,394894180135203E-004	1,000000000000000E+000
4,5333046E-002	-1,178316891269953E-004	1,000000000000000E+000
4,9352966E-002	-9,243700371008070E-005	1,000000000000000E+000
5,3402886E-002	-6,306495125799619E-005	1,000000000000000E+000
5,7380456E-002	-4,521947014670758E-005	1,000000000000000E+000
6,1385639E-002	-1,554058005123312E-005	1,000000000000000E+000
6,5379143E-002	1,486676169913606E-006	1,000000000000000E+000
6,9388576E-002	3,057962656786040E-005	1,000000000000000E+000
7,3419251E-002	4,926471904987285E-005	1,000000000000000E+000
7,7359654E-002	7,377491974402538E-005	1,000000000000000E+000
8,1319183E-002	8,962612906835473E-005	1,000000000000000E+000
8,5349917E-002	1,128314535382789E-004	1,000000000000000E+000
8,9357160E-002	1,312012014693018E-004	1,000000000000000E+000
9,3392074E-002	1,491812251588720E-004	1,000000000000000E+000
9,7357981E-002	1,646900930166118E-004	1,000000000000000E+000
1,0136102E-001	1,779144745143405E-004	1,000000000000000E+000
1,0535029E-001	1,967720329965944E-004	1,000000000000000E+000
1,0933104E-001	2,084685090235959E-004	1,000000000000000E+000
1,1338296E-001	2,256740031418682E-004	1,000000000000000E+000
1,1735947E-001	2,383930966861790E-004	1,000000000000000E+000
1,2127355E-001	2,495638664724489E-004	1,000000000000000E+000
1,2535392E-001	2,619031494280073E-004	1,000000000000000E+000
1,2939626E-001	2,761500613031164E-004	1,000000000000000E+000
1,3337171E-001	2,867938064183570E-004	1,000000000000000E+000
1,3728982E-001	2,996696763878136E-004	1,000000000000000E+000
1,4134917E-001	3,130280149375546E-004	1,000000000000000E+000
1,4538088E-001	3,213210376107234E-004	1,000000000000000E+000
1,4932944E-001	3,323201158341987E-004	1,000000000000000E+000
1,5333182E-001	3,369147359489019E-004	1,000000000000000E+000
1,5741239E-001	3,455698214872190E-004	1,000000000000000E+000
1,6134217E-001	3,545000352814902E-004	1,000000000000000E+000
1,6538239E-001	3,564295913805375E-004	1,000000000000000E+000
1,6942155E-001	3,593265174889823E-004	1,000000000000000E+000
1,7338426E-001	3,590453162461123E-004	1,000000000000000E+000
1,7735654E-001	3,632721986224228E-004	1,000000000000000E+000
1,8137869E-001	3,664461059781294E-004	1,000000000000000E+000
1,8541873E-001	3,562127102920941E-004	1,000000000000000E+000
1,8938908E-001	3,567736571013676E-004	1,000000000000000E+000
1,9338471E-001	3,514095877442114E-004	1,000000000000000E+000
1,9732937E-001	3,397554019205357E-004	1,000000000000000E+000
2,0136747E-001	3,377042044008056E-004	1,000000000000000E+000
2,0535566E-001	3,267357734245734E-004	1,000000000000000E+000
2,0931095E-001	3,167100277960445E-004	1,000000000000000E+000
2,1336071E-001	3,101847478876370E-004	1,000000000000000E+000
2,1737969E-001	3,046110552115317E-004	1,000000000000000E+000
2,2132528E-001	2,939849784176746E-004	1,000000000000000E+000
2,2529237E-001	2,885455629055492E-004	1,000000000000000E+000
2,2936234E-001	2,891906715273410E-004	1,000000000000000E+000
2,3336858E-001	2,811968084898732E-004	1,000000000000000E+000
2,3729733E-001	2,765824977002656E-004	1,000000000000000E+000
2,4131632E-001	2,700893695329219E-004	1,000000000000000E+000
2,4536398E-001	2,669768502297325E-004	1,000000000000000E+000
2,4932988E-001	2,675781504427204E-004	1,000000000000000E+000
2,5328514E-001	2,717157245475123E-004	1,000000000000000E+000
2,5735089E-001	2,751906318636430E-004	1,000000000000000E+000
2,6135710E-001	2,740454809000923E-004	1,000000000000000E+000
2,6529220E-001	2,805664212648649E-004	1,000000000000000E+000
2,6930800E-001	2,915617943408242E-004	1,000000000000000E+000
2,7330789E-001	2,996586292114496E-004	1,000000000000000E+000
2,7736297E-001	3,134565399076006E-004	1,000000000000000E+000
2,8133205E-001	3,271349658156763E-004	1,000000000000000E+000
2,8533831E-001	3,481144389722540E-004	1,000000000000000E+000
2,8932753E-001	3,614041045115271E-004	1,000000000000000E+000
2,9332036E-001	3,814509636641964E-004	1,000000000000000E+000
2,9735172E-001	4,018127127408642E-004	1,000000000000000E+000
3,0132613E-001	4,207517307605636E-004	1,000000000000000E+000
3,0538970E-001	4,364334765914828E-004	1,000000000000000E+000
3,0936304E-001	4,575338234665376E-004	1,000000000000000E+000
3,1331620E-001	4,762109840401158E-004	1,000000000000000E+000
3,1735533E-001	4,915907586208793E-004	1,000000000000000E+000
3,2133353E-001	5,074376203828674E-004	1,000000000000000E+000
3,2533810E-001	5,205547693140928E-004	1,000000000000000E+000
3,2932949E-001	5,328832673989871E-004	1,000000000000000E+000
3,3333570E-001	5,450076404075596E-004	1,000000000000000E+000
3,3731970E-001	5,548782485504285E-004	1,000000000000000E+000
3,4135142E-001	5,636969022309298E-004	1,000000000000000E+000
3,4539697E-001	5,681132136068912E-004	1,000000000000000E+000
3,4940532E-001	5,763599899292048E-004	1,000000000000000E+000
3,5334572E-001	5,753218547376810E-004	1,000000000000000E+000
3,5736123E-001	5,737950478825072E-004	1,000000000000000E+000
3,6138690E-001	5,768230940721361E-004	1,000000000000000E+000
3,6536765E-001	5,795016589954221E-004	1,000000000000000E+000
3,6933252E-001	5,800649072081237E-004	1,000000000000000E+000
3,7336954E-001	5,754567804586476E-004	1,000000000000000E+000
3,7736091E-001	5,743095694108052E-004	1,000000000000000E+000
3,8133106E-001	5,707703700849488E-004	1,000000000000000E+000
3,8531184E-001	5,668050880785272E-004	1,000000000000000E+000
3,8934463E-001	5,669601497605928E-004	1,000000000000000E+000
3,9334869E-001	5,664651473210464E-004	1,000000000000000E+000
3,9733264E-001	5,644193548472436E-004	1,000000000000000E+000
4,0129432E-001	5,642311316767042E-004	1,000000000000000E+000
4,0529734E-001	5,647002314768121E-004	1,000000000000000E+000
4,0938115E-001	5,707339207958089E-004	1,000000000000000E+000
4,1334492E-001	5,656403834589886E-004	1,000000000000000E+000
4,1735119E-001	5,732981850033909E-004	1,000000000000000E+000
4,2134681E-001	5,790165659062827E-004	1,000000000000000E+000
4,2534029E-001	5,998794161741349E-004	1,000000000000000E+000
4,2931259E-001	6,196785338123392E-004	1,000000000000000E+000
4,3336025E-001	6,511016486795609E-004	1,000000000000000E+000
4,3735269E-001	6,866544296379243E-004	1,000000000000000E+000
4,4130898E-001	7,333440078256632E-004	1,000000000000000E+000
4,4530994E-001	7,880249970696543E-004	1,000000000000000E+000
4,4934383E-001	8,595632710171365E-004	1,000000000000000E+000
4,5332772E-001	9,429245117875329E-004	1,000000000000000E+000
4,5732021E-001	1,051746990334756E-003	1,000000000000000E+000
4,6135294E-001	1,173099290227209E-003	1,000000000000000E+000
4,6536151E-001	1,313238525962467E-003	1,000000000000000E+000
4,6594763E-001	1,240377173720237E-003	1,000000000000000E+000