File: fig_4_nife_ceo2/Activity_1_CV/Ni75Fe25_Activity_1_CV_1_02_CV_C01.txt
Ewe/V	<I>/mA	cycle number
5,5791446E-005	-1,208778381347656E+000	1,000000000000000E+000
2,9885378E-003	-2,975946125762365E-001	1,000000000000000E+000
5,9542009E-003	-1,832169312170691E-001	1,000000000000000E+000
8,9665819E-003	-1,342220560957985E-001	1,000000000000000E+000
1,1989584E-002	-1,059992805507690E-001	1,000000000000000E+000
1,4976814E-002	-8,776333386383106E-002	1,000000000000000E+000
1,7959135E-002	-7,446075952611871E-002	1,000000000000000E+000
2,0914180E-002	-6,474190905517013E-002	1,000000000000000E+000
2,3969036E-002	-5,703552743439017E-002	1,000000000000000E+000
2,6999468E-002	-5,080317474939700E-002	1,000000000000000E+000
3,0074110E-002	-4,560068722993738E-002	1,000000000000000E+000
3,3163335E-002	-4,122817497082730E-002	1,000000000000000E+000
3,6202263E-002	-3,767992914263611E-002	1,000000000000000E+000
3,9177485E-002	-3,463301437171993E-002	1,000000000000000E+000
4,2166505E-002	-3,189579077152649E-002	1,000000000000000E+000
4,5124732E-002	-2,966254125607926E-002	1,000000000000000E+000
4,8150919E-002	-2,756803442197145E-002	1,000000000000000E+000
5,1111273E-002	-2,575279464850172E-002	1,000000000000000E+000
5,4141294E-002	-2,415205804114473E-002	1,000000000000000E+000
5,7162583E-002	-2,268144310755102E-002	1,000000000000000E+000
6,0153726E-002	-2,137528742133490E-002	1,000000000000000E+000
6,3175663E-002	-2,014840416366856E-002	1,000000000000000E+000
6,6156194E-002	-1,905669970728252E-002	1,000000000000000E+000
6,9131419E-002	-1,806995318912163E-002	1,000000000000000E+000
7,2144859E-002	-1,715807102199815E-002	1,000000000000000E+000
7,5188041E-002	-1,632013123523651E-002	1,000000000000000E+000
7,8166336E-002	-1,552540213667775E-002	1,000000000000000E+000
8,1158653E-002	-1,477888289270418E-002	1,000000000000000E+000
8,4195450E-002	-1,409917595717624E-002	1,000000000000000E+000
8,7139882E-002	-1,349335786257722E-002	1,000000000000000E+000
9,0169258E-002	-1,288235599089038E-002	1,000000000000000E+000
9,3158275E-002	-1,233104505307464E-002	1,000000000000000E+000
9,6121818E-002	-1,182220929078948E-002	1,000000000000000E+000
9,9091716E-002	-1,133512556343025E-002	1,000000000000000E+000
1,0218487E-001	-1,087506981504230E-002	1,000000000000000E+000
1,0512287E-001	-1,043832480590400E-002	1,000000000000000E+000
1,0812461E-001	-1,004066979564053E-002	1,000000000000000E+000
1,1112639E-001	-9,645999703068481E-003	1,000000000000000E+000
1,1414194E-001	-9,287383515520269E-003	1,000000000000000E+000
1,1715115E-001	-8,937612838334108E-003	1,000000000000000E+000
1,2012212E-001	-8,612166080716729E-003	1,000000000000000E+000
1,2310266E-001	-8,303382204551985E-003	1,000000000000000E+000
1,2613551E-001	-7,990613637472443E-003	1,000000000000000E+000
1,2916458E-001	-7,702936178990344E-003	1,000000000000000E+000
1,3215254E-001	-7,440311022344659E-003	1,000000000000000E+000
1,3514687E-001	-7,177129184260722E-003	1,000000000000000E+000
1,3814120E-001	-6,918191853760185E-003	1,000000000000000E+000
1,4118968E-001	-6,671193306919801E-003	1,000000000000000E+000
1,4416809E-001	-6,449680459947454E-003	1,000000000000000E+000
1,4712527E-001	-6,224002590856481E-003	1,000000000000000E+000
1,5014189E-001	-6,020699886728154E-003	1,000000000000000E+000
1,5311499E-001	-5,808079006595718E-003	1,000000000000000E+000
1,5615073E-001	-5,636419686181244E-003	1,000000000000000E+000
1,5914612E-001	-5,456703995241480E-003	1,000000000000000E+000
1,6211709E-001	-5,273330638469201E-003	1,000000000000000E+000
1,6515243E-001	-5,095326765522271E-003	1,000000000000000E+000
1,6820450E-001	-4,913636858863049E-003	1,000000000000000E+000
1,7118612E-001	-4,756734247960614E-003	1,000000000000000E+000
1,7421973E-001	-4,634461047114902E-003	1,000000000000000E+000
1,7721513E-001	-4,481083283480940E-003	1,000000000000000E+000
1,8021369E-001	-4,342018655272182E-003	1,000000000000000E+000
1,8325900E-001	-4,209488568919360E-003	1,000000000000000E+000
1,8621509E-001	-4,072555717691412E-003	1,000000000000000E+000
1,8925095E-001	-3,937593345130178E-003	1,000000000000000E+000
1,9228446E-001	-3,822269051664662E-003	1,000000000000000E+000
1,9523951E-001	-3,696535266754997E-003	1,000000000000000E+000
1,9820407E-001	-3,587882213921187E-003	1,000000000000000E+000
2,0123667E-001	-3,467398839879968E-003	1,000000000000000E+000
2,0419700E-001	-3,352509309396991E-003	1,000000000000000E+000
2,0723061E-001	-3,248001823233204E-003	1,000000000000000E+000
2,1019736E-001	-3,146976846645916E-003	1,000000000000000E+000
2,1326733E-001	-3,037460278338559E-003	1,000000000000000E+000
2,1615523E-001	-2,935522164473792E-003	1,000000000000000E+000
2,1917611E-001	-2,839744233979299E-003	1,000000000000000E+000
2,2222246E-001	-2,749453744197829E-003	1,000000000000000E+000
2,2521466E-001	-2,654093251626424E-003	1,000000000000000E+000
2,2822919E-001	-2,561424923873290E-003	1,000000000000000E+000
2,3120758E-001	-2,477297329717657E-003	1,000000000000000E+000
2,3422319E-001	-2,384747641634009E-003	1,000000000000000E+000
2,3719455E-001	-2,308596417588073E-003	1,000000000000000E+000
2,4023625E-001	-2,227749149482025E-003	1,000000000000000E+000
2,4324121E-001	-2,148365447650250E-003	1,000000000000000E+000
2,4622490E-001	-2,077129435204946E-003	1,000000000000000E+000
2,4921286E-001	-2,002860024999602E-003	1,000000000000000E+000
2,5218913E-001	-1,926549748626997E-003	1,000000000000000E+000
2,5521851E-001	-1,857787489604897E-003	1,000000000000000E+000
2,5823835E-001	-1,783229690896455E-003	1,000000000000000E+000
2,6124007E-001	-1,721295499504965E-003	1,000000000000000E+000
2,6421213E-001	-1,654944226793562E-003	1,000000000000000E+000
2,6716718E-001	-1,590854990964737E-003	1,000000000000000E+000
2,7024329E-001	-1,532423014480595E-003	1,000000000000000E+000
2,7323228E-001	-1,469642145251922E-003	1,000000000000000E+000
2,7620193E-001	-1,407140275208807E-003	1,000000000000000E+000
2,7923900E-001	-1,349903048895053E-003	1,000000000000000E+000
2,8224927E-001	-1,291556410632897E-003	1,000000000000000E+000
2,8522447E-001	-1,235541740775288E-003	1,000000000000000E+000
2,8817531E-001	-1,181247417821037E-003	1,000000000000000E+000
2,9129916E-001	-1,125159120774717E-003	1,000000000000000E+000
2,9426587E-001	-1,066684148553456E-003	1,000000000000000E+000
2,9724008E-001	-1,015072027676357E-003	1,000000000000000E+000
3,0024913E-001	-9,622526338715354E-004	1,000000000000000E+000
3,0326164E-001	-9,127834356044640E-004	1,000000000000000E+000
3,0630586E-001	-8,614536530819721E-004	1,000000000000000E+000
3,0926409E-001	-8,116726775722581E-004	1,000000000000000E+000
3,1221065E-001	-7,672456804089251E-004	1,000000000000000E+000
3,1519964E-001	-7,168048800179358E-004	1,000000000000000E+000
3,1823221E-001	-6,776637651837066E-004	1,000000000000000E+000
3,2121488E-001	-6,295579423337134E-004	1,000000000000000E+000
3,2426021E-001	-5,851196433743536E-004	1,000000000000000E+000
3,2724071E-001	-5,461506538424442E-004	1,000000000000000E+000
3,3023292E-001	-5,014058995073019E-004	1,000000000000000E+000
3,3325380E-001	-4,604929572802124E-004	1,000000000000000E+000
3,3621305E-001	-4,213200109109833E-004	1,000000000000000E+000
3,3920738E-001	-3,853141681202140E-004	1,000000000000000E+000
3,4219217E-001	-3,429996531973348E-004	1,000000000000000E+000
3,4524918E-001	-3,069619030659082E-004	1,000000000000000E+000
3,4823862E-001	-2,764315571970808E-004	1,000000000000000E+000
3,5125378E-001	-2,398756946016640E-004	1,000000000000000E+000
3,5429054E-001	-2,020691066008974E-004	1,000000000000000E+000
3,5724670E-001	-1,728482968813578E-004	1,000000000000000E+000
3,6022717E-001	-1,349885306306392E-004	1,000000000000000E+000
3,6321941E-001	-1,047152006910632E-004	1,000000000000000E+000
3,6618614E-001	-7,532386992038277E-005	1,000000000000000E+000
3,6924520E-001	-4,436147369137987E-005	1,000000000000000E+000
3,7222576E-001	-1,057953595142144E-005	1,000000000000000E+000
3,7523383E-001	2,437009768161716E-005	1,000000000000000E+000
3,7821543E-001	5,627805259968111E-005	1,000000000000000E+000
3,8120875E-001	8,620687819087491E-005	1,000000000000000E+000
3,8427317E-001	1,220979646962238E-004	1,000000000000000E+000
3,8721833E-001	1,546402461133542E-004	1,000000000000000E+000
3,9022678E-001	1,845170120561334E-004	1,000000000000000E+000
3,9326251E-001	2,212863411804045E-004	1,000000000000000E+000
3,9619845E-001	2,536507918971392E-004	1,000000000000000E+000
3,9928201E-001	2,913045773404559E-004	1,000000000000000E+000
4,0222532E-001	3,224780679273774E-004	1,000000000000000E+000
4,0521437E-001	3,644943669764260E-004	1,000000000000000E+000
4,0821931E-001	4,013527845401531E-004	1,000000000000000E+000
4,1125894E-001	4,377422155244208E-004	1,000000000000000E+000
4,1423237E-001	4,705054356455001E-004	1,000000000000000E+000
4,1720867E-001	5,175348075873339E-004	1,000000000000000E+000
4,2022213E-001	5,541757063570220E-004	1,000000000000000E+000
4,2321542E-001	5,972695138317706E-004	1,000000000000000E+000
4,2625219E-001	6,372948407102209E-004	1,000000000000000E+000
4,2922637E-001	6,841504083795313E-004	1,000000000000000E+000
4,3221962E-001	7,313427865118342E-004	1,000000000000000E+000
4,3523192E-001	7,809618101783343E-004	1,000000000000000E+000
4,3821889E-001	8,368904174008837E-004	1,000000000000000E+000
4,4121644E-001	8,857220517816757E-004	1,000000000000000E+000
4,4425324E-001	9,517697120468649E-004	1,000000000000000E+000
4,4719020E-001	1,022165612794236E-003	1,000000000000000E+000
4,5024824E-001	1,094427081051998E-003	1,000000000000000E+000
4,5319694E-001	1,178490905250344E-003	1,000000000000000E+000
4,5618808E-001	1,273407575461454E-003	1,000000000000000E+000
4,5925915E-001	1,394502120066688E-003	1,000000000000000E+000
4,6221921E-001	1,537221589329880E-003	1,000000000000000E+000
4,6527514E-001	1,727601613298605E-003	1,000000000000000E+000
4,6822700E-001	1,973075980147402E-003	1,000000000000000E+000
4,7127759E-001	2,299957438013063E-003	1,000000000000000E+000
4,7425276E-001	2,714949540700562E-003	1,000000000000000E+000
4,7722805E-001	3,234479883424367E-003	1,000000000000000E+000
4,8022556E-001	3,859209336052436E-003	1,000000000000000E+000
4,8329458E-001	4,599113535398686E-003	1,000000000000000E+000
4,8622271E-001	5,461647544758891E-003	1,000000000000000E+000
4,8919895E-001	6,448018265351699E-003	1,000000000000000E+000
4,9218589E-001	7,549557625659273E-003	1,000000000000000E+000
4,9530765E-001	8,794673715806256E-003	1,000000000000000E+000
4,9823517E-001	1,020575657604650E-002	1,000000000000000E+000
5,0129950E-001	1,183497069923309E-002	1,000000000000000E+000
5,0434053E-001	1,358294726099690E-002	1,000000000000000E+000
5,0735086E-001	1,554628382748438E-002	1,000000000000000E+000
5,1031440E-001	1,773825260364953E-002	1,000000000000000E+000
5,1328111E-001	2,019752222818147E-002	1,000000000000000E+000
5,1632637E-001	2,295902556918736E-002	1,000000000000000E+000
5,1931226E-001	2,601010979088803E-002	1,000000000000000E+000
5,2225226E-001	2,940252219052976E-002	1,000000000000000E+000
5,2538043E-001	3,300414189813528E-002	1,000000000000000E+000
5,2831221E-001	3,665443048537909E-002	1,000000000000000E+000
5,3127897E-001	4,021797247802256E-002	1,000000000000000E+000
5,3425628E-001	4,359146387763979E-002	1,000000000000000E+000
5,3732806E-001	4,667418850760033E-002	1,000000000000000E+000
5,4035008E-001	4,939363980106176E-002	1,000000000000000E+000
5,4329765E-001	5,158197974876966E-002	1,000000000000000E+000
5,4638141E-001	5,335946210565323E-002	1,000000000000000E+000
5,4935533E-001	5,475849847630299E-002	1,000000000000000E+000
5,5235499E-001	5,618394032921104E-002	1,000000000000000E+000
5,5531961E-001	5,782257033989305E-002	1,000000000000000E+000
5,5830115E-001	5,980305647733042E-002	1,000000000000000E+000
5,6127536E-001	6,239267807853025E-002	1,000000000000000E+000
5,6432384E-001	6,575126176417001E-002	1,000000000000000E+000
5,6728947E-001	6,988656385210434E-002	1,000000000000000E+000
5,7028216E-001	7,493803730010318E-002	1,000000000000000E+000
5,7335776E-001	8,090364318995702E-002	1,000000000000000E+000
5,7629371E-001	8,780405383985812E-002	1,000000000000000E+000
5,7931560E-001	9,553705511272526E-002	1,000000000000000E+000
5,8226329E-001	1,041317844537430E-001	1,000000000000000E+000
5,8545262E-001	1,144997343655706E-001	1,000000000000000E+000
5,8844620E-001	1,249471786252454E-001	1,000000000000000E+000
5,9139597E-001	1,373300285040571E-001	1,000000000000000E+000
5,9440094E-001	1,500667673472291E-001	1,000000000000000E+000
5,9740263E-001	1,638640212243563E-001	1,000000000000000E+000
6,0041296E-001	1,792111793298563E-001	1,000000000000000E+000
6,0342318E-001	1,960710082224271E-001	1,000000000000000E+000
6,0634321E-001	2,132553818853165E-001	1,000000000000000E+000
6,0936284E-001	2,320658215128142E-001	1,000000000000000E+000
6,1241150E-001	2,523686189010146E-001	1,000000000000000E+000
6,1540055E-001	2,740814017909079E-001	1,000000000000000E+000
6,1840338E-001	2,975553048673234E-001	1,000000000000000E+000
6,2138283E-001	3,218316075090084E-001	1,000000000000000E+000
6,2441325E-001	3,480134339614560E-001	1,000000000000000E+000
6,2734288E-001	3,753625038132702E-001	1,000000000000000E+000
6,3036478E-001	4,037243659669323E-001	1,000000000000000E+000
6,3343447E-001	4,333751592599278E-001	1,000000000000000E+000
6,3643622E-001	4,664921116151439E-001	1,000000000000000E+000
6,3934565E-001	5,009507736795147E-001	1,000000000000000E+000
6,4243126E-001	5,359322412780007E-001	1,000000000000000E+000
6,4538848E-001	5,723642642966671E-001	1,000000000000000E+000
6,4840287E-001	6,113518611897595E-001	1,000000000000000E+000
6,5144080E-001	6,498075623251092E-001	1,000000000000000E+000
6,5443307E-001	6,917451435526871E-001	1,000000000000000E+000
6,5739352E-001	7,352876453404669E-001	1,000000000000000E+000
6,6037387E-001	7,812971721177320E-001	1,000000000000000E+000
6,6342038E-001	8,271827515206240E-001	1,000000000000000E+000
6,6635728E-001	8,746730971430985E-001	1,000000000000000E+000
6,6943443E-001	9,242926309658186E-001	1,000000000000000E+000
6,7241812E-001	9,756555545678091E-001	1,000000000000000E+000
6,7539227E-001	1,027959839979403E+000	1,000000000000000E+000
6,7839080E-001	1,085750909931873E+000	1,000000000000000E+000
6,8160713E-001	1,145254267274052E+000	1,000000000000000E+000
6,8455583E-001	1,202290564530495E+000	1,000000000000000E+000
6,8762130E-001	1,261988388496934E+000	1,000000000000000E+000
6,9054455E-001	1,324272055432299E+000	1,000000000000000E+000
6,9360036E-001	1,385610825713731E+000	1,000000000000000E+000
6,9660944E-001	1,447866715175664E+000	1,000000000000000E+000
6,9954973E-001	1,512850898497501E+000	1,000000000000000E+000
7,0262587E-001	1,582713636445082E+000	1,000000000000000E+000
7,0563406E-001	1,641431985308937E+000	1,000000000000000E+000
7,0859963E-001	1,708712273494868E+000	1,000000000000000E+000
7,1157593E-001	1,787883691996534E+000	1,000000000000000E+000
7,1461481E-001	1,864675590156018E+000	1,000000000000000E+000
7,1762091E-001	1,928492909386044E+000	1,000000000000000E+000
7,2056550E-001	2,002601854407055E+000	1,000000000000000E+000
7,2359788E-001	2,077827520989509E+000	1,000000000000000E+000
7,2659320E-001	2,152890986900218E+000	1,000000000000000E+000
7,2956419E-001	2,231461586781236E+000	1,000000000000000E+000
7,3256916E-001	2,314579786272411E+000	1,000000000000000E+000
7,3560071E-001	2,391414198509146E+000	1,000000000000000E+000
7,3855138E-001	2,475141979872241E+000	1,000000000000000E+000
7,4162751E-001	2,551715917243307E+000	1,000000000000000E+000
7,4460202E-001	2,635070164227962E+000	1,000000000000000E+000
7,4762374E-001	2,715455069174977E+000	1,000000000000000E+000
7,5054681E-001	2,803450931514064E+000	1,000000000000000E+000
7,5361437E-001	2,889567046191814E+000	1,000000000000000E+000
7,5660557E-001	2,976334088513644E+000	1,000000000000000E+000
7,5960308E-001	3,061506869132018E+000	1,000000000000000E+000
7,6258570E-001	3,154340832546978E+000	1,000000000000000E+000
7,6556206E-001	3,242597701969856E+000	1,000000000000000E+000
7,6861554E-001	3,324464158422842E+000	1,000000000000000E+000
7,7157408E-001	3,418786835575865E+000	1,000000000000000E+000
7,7456844E-001	3,510793591471476E+000	1,000000000000000E+000
7,7757549E-001	3,597547990124236E+000	1,000000000000000E+000
7,8056341E-001	3,702845533114438E+000	1,000000000000000E+000
7,8360617E-001	3,789224547842458E+000	1,000000000000000E+000
7,8658396E-001	3,880935074081492E+000	1,000000000000000E+000
7,8960788E-001	3,973440075339660E+000	1,000000000000000E+000
7,9260761E-001	4,077209136755002E+000	1,000000000000000E+000
7,9556268E-001	4,169902220267019E+000	1,000000000000000E+000
7,9859412E-001	4,258483743856800E+000	1,000000000000000E+000
8,0153114E-001	4,353430228979423E+000	1,000000000000000E+000
8,0456364E-001	4,463275345477406E+000	1,000000000000000E+000
8,0759192E-001	4,552255536277670E+000	1,000000000000000E+000
8,1064057E-001	4,649321121119311E+000	1,000000000000000E+000
8,1356257E-001	4,755063014168311E+000	1,000000000000000E+000
8,1656545E-001	4,841387647484979E+000	1,000000000000000E+000
8,1957680E-001	4,943608302073958E+000	1,000000000000000E+000
8,2257003E-001	5,052006157786678E+000	1,000000000000000E+000
8,2551557E-001	5,147980310242453E+000	1,000000000000000E+000
8,2855761E-001	5,251287842722697E+000	1,000000000000000E+000
8,3158773E-001	5,352264306199636E+000	1,000000000000000E+000
8,3459938E-001	5,448188872091350E+000	1,000000000000000E+000
8,3753848E-001	5,543699689395293E+000	1,000000000000000E+000
8,4055191E-001	5,657910982801525E+000	1,000000000000000E+000
8,4354210E-001	5,766713392977834E+000	1,000000000000000E+000
8,4656090E-001	5,870117317555710E+000	1,000000000000000E+000
8,4959757E-001	5,963533249808265E+000	1,000000000000000E+000
8,5256010E-001	6,070297043136989E+000	1,000000000000000E+000
8,5558087E-001	6,179816002264488E+000	1,000000000000000E+000
8,5864961E-001	6,286846428704109E+000	1,000000000000000E+000
8,6157596E-001	6,398622951742752E+000	1,000000000000000E+000
8,6458623E-001	6,506354552345215E+000	1,000000000000000E+000
8,6757106E-001	6,613869081481496E+000	1,000000000000000E+000
8,7058026E-001	6,719498343208244E+000	1,000000000000000E+000
8,7360442E-001	6,819580200983566E+000	1,000000000000000E+000
8,7659973E-001	6,937061586888206E+000	1,000000000000000E+000
8,7953699E-001	7,044496345294704E+000	1,000000000000000E+000
8,8251191E-001	7,162129457913302E+000	1,000000000000000E+000
8,8556576E-001	7,265472197884080E+000	1,000000000000000E+000
8,8862491E-001	7,377219499914560E+000	1,000000000000000E+000
8,9157987E-001	7,498456313564162E+000	1,000000000000000E+000
8,9456779E-001	7,611171990768185E+000	1,000000000000000E+000
8,9754188E-001	7,728393845952823E+000	1,000000000000000E+000
9,0057141E-001	7,835580361403044E+000	1,000000000000000E+000
9,0354341E-001	7,944876081440910E+000	1,000000000000000E+000
9,0650266E-001	8,065472408554697E+000	1,000000000000000E+000
9,0957451E-001	8,194308359404019E+000	1,000000000000000E+000
9,1258895E-001	8,306710133882333E+000	1,000000000000000E+000
9,1553664E-001	8,430049721413454E+000	1,000000000000000E+000
9,1857517E-001	8,552028028406909E+000	1,000000000000000E+000
9,2156029E-001	8,667665785672710E+000	1,000000000000000E+000
9,2458123E-001	8,779847202522696E+000	1,000000000000000E+000
9,2759681E-001	8,912449809564190E+000	1,000000000000000E+000
9,3057626E-001	9,028331525539286E+000	1,000000000000000E+000
9,3357807E-001	9,154771056710501E+000	1,000000000000000E+000
9,3659985E-001	9,283165875475976E+000	1,000000000000000E+000
9,3958253E-001	9,395710146683939E+000	1,000000000000000E+000
9,4256502E-001	9,516751081141095E+000	1,000000000000000E+000
9,4557232E-001	9,630733377538867E+000	1,000000000000000E+000
9,4857514E-001	9,760429371173711E+000	1,000000000000000E+000
9,5162791E-001	9,875474030671441E+000	1,000000000000000E+000
9,5463926E-001	1,000140309293255E+001	1,000000000000000E+000
9,5749658E-001	1,011319271135494E+001	1,000000000000000E+000
9,6057373E-001	1,023519713734017E+001	1,000000000000000E+000
9,6356595E-001	1,036772418110010E+001	1,000000000000000E+000
9,6652728E-001	1,049645581743590E+001	1,000000000000000E+000
9,6959066E-001	1,059799980536073E+001	1,000000000000000E+000
9,7257024E-001	1,072552654512072E+001	1,000000000000000E+000
9,7563350E-001	1,083953061524156E+001	1,000000000000000E+000
9,7874993E-001	1,095685037869177E+001	1,000000000000000E+000
9,8171246E-001	1,108374672073896E+001	1,000000000000000E+000
9,8484904E-001	1,121216647472238E+001	1,000000000000000E+000
9,8775423E-001	1,132384667212732E+001	1,000000000000000E+000
9,9074036E-001	1,144067039595981E+001	1,000000000000000E+000
9,9371099E-001	1,156847357513408E+001	1,000000000000000E+000
9,9675202E-001	1,168585536201530E+001	1,000000000000000E+000
9,9958241E-001	1,179803023459957E+001	1,000000000000000E+000
9,9840170E-001	1,166886850398106E+001	1,000000000000000E+000
9,9528891E-001	1,146027395581982E+001	1,000000000000000E+000
9,9233067E-001	1,126058999710881E+001	1,000000000000000E+000
9,8934048E-001	1,106460969640014E+001	1,000000000000000E+000
9,8637593E-001	1,086197157761677E+001	1,000000000000000E+000
9,8335433E-001	1,069821922844733E+001	1,000000000000000E+000
9,8033416E-001	1,050753906065106E+001	1,000000000000000E+000
9,7735578E-001	1,034513112443106E+001	1,000000000000000E+000
9,7431898E-001	1,015731514608511E+001	1,000000000000000E+000
9,7146493E-001	1,002682798006100E+001	1,000000000000000E+000
9,6834195E-001	9,863415827286211E+000	1,000000000000000E+000
9,6531892E-001	9,716225623611409E+000	1,000000000000000E+000
9,6231830E-001	9,558926375206880E+000	1,000000000000000E+000
9,5938903E-001	9,402687701510445E+000	1,000000000000000E+000
9,5629668E-001	9,256451374143751E+000	1,000000000000000E+000
9,5328116E-001	9,107706289442731E+000	1,000000000000000E+000
9,5037818E-001	8,977105812488503E+000	1,000000000000000E+000
9,4737422E-001	8,827450711170297E+000	1,000000000000000E+000
9,4429499E-001	8,696032831931035E+000	1,000000000000000E+000
9,4132715E-001	8,566230494824680E+000	1,000000000000000E+000
9,3841356E-001	8,427503624267910E+000	1,000000000000000E+000
9,3544436E-001	8,286424904139380E+000	1,000000000000000E+000
9,3228894E-001	8,163168891419643E+000	1,000000000000000E+000
9,2934883E-001	8,029381961981983E+000	1,000000000000000E+000
9,2629915E-001	7,908327246604344E+000	1,000000000000000E+000
9,2330807E-001	7,790399470837500E+000	1,000000000000000E+000
9,2031062E-001	7,669147198027218E+000	1,000000000000000E+000
9,1723758E-001	7,549048612042071E+000	1,000000000000000E+000
9,1435158E-001	7,416690524000131E+000	1,000000000000000E+000
9,1134334E-001	7,288515262032391E+000	1,000000000000000E+000
9,0834183E-001	7,150343065764631E+000	1,000000000000000E+000
9,0530497E-001	7,041120026860375E+000	1,000000000000000E+000
9,0230101E-001	6,946159867202338E+000	1,000000000000000E+000
8,9933121E-001	6,827483874937826E+000	1,000000000000000E+000
8,9636230E-001	6,711813065538045E+000	1,000000000000000E+000
8,9334887E-001	6,589959347058823E+000	1,000000000000000E+000
8,9035988E-001	6,477035144626967E+000	1,000000000000000E+000
8,8731349E-001	6,372582383222952E+000	1,000000000000000E+000
8,8435948E-001	6,270160982533099E+000	1,000000000000000E+000
8,8134813E-001	6,164882669339374E+000	1,000000000000000E+000
8,7829763E-001	6,044851552061488E+000	1,000000000000000E+000
8,7534463E-001	5,933714317998358E+000	1,000000000000000E+000
8,7237722E-001	5,846837084762075E+000	1,000000000000000E+000
8,6937189E-001	5,722909213159909E+000	1,000000000000000E+000
8,6632663E-001	5,632548510825572E+000	1,000000000000000E+000
8,6334282E-001	5,521381705830407E+000	1,000000000000000E+000
8,6032951E-001	5,434461108073083E+000	1,000000000000000E+000
8,5737759E-001	5,329422971829269E+000	1,000000000000000E+000
8,5434401E-001	5,237900577029379E+000	1,000000000000000E+000
8,5133165E-001	5,137867582459279E+000	1,000000000000000E+000
8,4839898E-001	5,036766062647009E+000	1,000000000000000E+000
8,4536409E-001	4,945250533875972E+000	1,000000000000000E+000
8,4234965E-001	4,848603350066007E+000	1,000000000000000E+000
8,3933407E-001	4,757793802421638E+000	1,000000000000000E+000
8,3632916E-001	4,688053539145287E+000	1,000000000000000E+000
8,3336353E-001	4,602575736555401E+000	1,000000000000000E+000
8,3036166E-001	4,504861511678655E+000	1,000000000000000E+000
8,2725054E-001	4,412912718259037E+000	1,000000000000000E+000
8,2426023E-001	4,320762132490348E+000	1,000000000000000E+000
8,2126933E-001	4,227010167307320E+000	1,000000000000000E+000
8,1826335E-001	4,151414041954354E+000	1,000000000000000E+000
8,1532317E-001	4,070183790730255E+000	1,000000000000000E+000
8,1234151E-001	3,981693211562771E+000	1,000000000000000E+000
8,0928141E-001	3,903538809240246E+000	1,000000000000000E+000
8,0626261E-001	3,816736581306607E+000	1,000000000000000E+000
8,0329055E-001	3,730578083401355E+000	1,000000000000000E+000
8,0029309E-001	3,641520836720019E+000	1,000000000000000E+000
7,9732209E-001	3,570887775614427E+000	1,000000000000000E+000
7,9427469E-001	3,477904699388006E+000	1,000000000000000E+000
7,9125166E-001	3,383690681114224E+000	1,000000000000000E+000
7,8824991E-001	3,302754780433872E+000	1,000000000000000E+000
7,8534055E-001	3,220846583716181E+000	1,000000000000000E+000
7,8237814E-001	3,144633796513771E+000	1,000000000000000E+000
7,7931368E-001	3,080172920156087E+000	1,000000000000000E+000
7,7626300E-001	2,992741435801470E+000	1,000000000000000E+000
7,7331656E-001	2,910997234943764E+000	1,000000000000000E+000
7,7033281E-001	2,836485417589323E+000	1,000000000000000E+000
7,6726097E-001	2,764969544007922E+000	1,000000000000000E+000
7,6429635E-001	2,679313631943700E+000	1,000000000000000E+000
7,6124048E-001	2,621942709328909E+000	1,000000000000000E+000
7,5828326E-001	2,535721853274076E+000	1,000000000000000E+000
7,5529742E-001	2,463207248116837E+000	1,000000000000000E+000
7,5227827E-001	2,393965906748061E+000	1,000000000000000E+000
7,4925780E-001	2,314749320685998E+000	1,000000000000000E+000
7,4627203E-001	2,247136072625242E+000	1,000000000000000E+000
7,4321920E-001	2,174580315309587E+000	1,000000000000000E+000
7,4025995E-001	2,120512082108419E+000	1,000000000000000E+000
7,3727351E-001	2,045768685414117E+000	1,000000000000000E+000
7,3426813E-001	1,970781145773643E+000	1,000000000000000E+000
7,3126423E-001	1,908345322473112E+000	1,000000000000000E+000
7,2832078E-001	1,845131454655636E+000	1,000000000000000E+000
7,2526699E-001	1,781714014219048E+000	1,000000000000000E+000
7,2230136E-001	1,720249546358099E+000	1,000000000000000E+000
7,1934098E-001	1,657774883028868E+000	1,000000000000000E+000
7,1629143E-001	1,594338055100305E+000	1,000000000000000E+000
7,1337062E-001	1,534073956727891E+000	1,000000000000000E+000
7,1030492E-001	1,470053675628845E+000	1,000000000000000E+000
7,0727980E-001	1,419524628314232E+000	1,000000000000000E+000
7,0425677E-001	1,358775466190579E+000	1,000000000000000E+000
7,0132190E-001	1,304568559438202E+000	1,000000000000000E+000
6,9825542E-001	1,250598529957728E+000	1,000000000000000E+000
6,9529396E-001	1,199480208004406E+000	1,000000000000000E+000
6,9227946E-001	1,144569371740358E+000	1,000000000000000E+000
6,8920982E-001	1,095844624829746E+000	1,000000000000000E+000
6,8630034E-001	1,039247262217696E+000	1,000000000000000E+000
6,8329650E-001	9,905770181629645E-001	1,000000000000000E+000
6,8032968E-001	9,414215944538391E-001	1,000000000000000E+000
6,7732483E-001	8,981020901935031E-001	1,000000000000000E+000
6,7428482E-001	8,522219000270166E-001	1,000000000000000E+000
6,7127776E-001	8,093595339107793E-001	1,000000000000000E+000
6,6831946E-001	7,658724853485950E-001	1,000000000000000E+000
6,6529417E-001	7,188270599537425E-001	1,000000000000000E+000
6,6229898E-001	6,805798463489610E-001	1,000000000000000E+000
6,5930361E-001	6,431189222079707E-001	1,000000000000000E+000
6,5630615E-001	6,052948731734764E-001	1,000000000000000E+000
6,5339142E-001	5,664974987261902E-001	1,000000000000000E+000
6,5026116E-001	5,314950873091200E-001	1,000000000000000E+000
6,4728796E-001	4,991177965901676E-001	1,000000000000000E+000
6,4430749E-001	4,658759588126493E-001	1,000000000000000E+000
6,4108914E-001	4,354580506099506E-001	1,000000000000000E+000
6,3809907E-001	4,035833582172259E-001	1,000000000000000E+000
6,3508767E-001	3,745976102785498E-001	1,000000000000000E+000
6,3211572E-001	3,470018244181625E-001	1,000000000000000E+000
6,2902051E-001	3,218294081854672E-001	1,000000000000000E+000
6,2604767E-001	2,978482750930738E-001	1,000000000000000E+000
6,2305737E-001	2,757154779736792E-001	1,000000000000000E+000
6,2007892E-001	2,540233530623679E-001	1,000000000000000E+000
6,1712706E-001	2,315160172406487E-001	1,000000000000000E+000
6,1401910E-001	2,115908204588415E-001	1,000000000000000E+000
6,1106515E-001	1,932519320292969E-001	1,000000000000000E+000
6,0810262E-001	1,759811698040941E-001	1,000000000000000E+000
6,0512638E-001	1,596392247722379E-001	1,000000000000000E+000
6,0208517E-001	1,449399180000335E-001	1,000000000000000E+000
5,9909844E-001	1,312506371061586E-001	1,000000000000000E+000
5,9606695E-001	1,184242334672989E-001	1,000000000000000E+000
5,9313208E-001	1,062826326173933E-001	1,000000000000000E+000
5,9007722E-001	9,525029090615345E-002	1,000000000000000E+000
5,8708924E-001	8,555956259781661E-002	1,000000000000000E+000
5,8408535E-001	7,617702396890635E-002	1,000000000000000E+000
5,8108360E-001	6,803535454053367E-002	1,000000000000000E+000
5,7806987E-001	6,068919474066248E-002	1,000000000000000E+000
5,7508957E-001	5,374197906586442E-002	1,000000000000000E+000
5,7208365E-001	4,767283216771356E-002	1,000000000000000E+000
5,6890452E-001	4,174154179113704E-002	1,000000000000000E+000
5,6591129E-001	3,689239931671939E-002	1,000000000000000E+000
5,6299782E-001	3,243617027231016E-002	1,000000000000000E+000
5,5987477E-001	2,856280894389346E-002	1,000000000000000E+000
5,5691546E-001	2,506720696659359E-002	1,000000000000000E+000
5,5388826E-001	2,199342898029810E-002	1,000000000000000E+000
5,5091202E-001	1,923172352315500E-002	1,000000000000000E+000
5,4786879E-001	1,680658518362055E-002	1,000000000000000E+000
5,4491699E-001	1,464769869708613E-002	1,000000000000000E+000
5,4188436E-001	1,275079653694983E-002	1,000000000000000E+000
5,3895408E-001	1,102146271372995E-002	1,000000000000000E+000
5,3591794E-001	9,486268566646305E-003	1,000000000000000E+000
5,3292161E-001	8,152381835089317E-003	1,000000000000000E+000
5,2986664E-001	6,965413073219295E-003	1,000000000000000E+000
5,2689779E-001	5,876535042092707E-003	1,000000000000000E+000
5,2389252E-001	4,972443748526831E-003	1,000000000000000E+000
5,2082103E-001	3,936519978178329E-003	1,000000000000000E+000
5,1779908E-001	3,132933622965656E-003	1,000000000000000E+000
5,1479512E-001	2,401422667600545E-003	1,000000000000000E+000
5,1175630E-001	1,703442142679864E-003	1,000000000000000E+000
5,0878322E-001	1,083080797412515E-003	1,000000000000000E+000
5,0575489E-001	4,743941627853203E-004	1,000000000000000E+000
5,0281262E-001	-6,303172387736914E-005	1,000000000000000E+000
4,9976835E-001	-6,081186476583735E-004	1,000000000000000E+000
4,9681759E-001	-1,113195361094953E-003	1,000000000000000E+000
4,9375954E-001	-1,613872213089302E-003	1,000000000000000E+000
4,9080026E-001	-2,085200093863183E-003	1,000000000000000E+000
4,8784098E-001	-2,574042682557724E-003	1,000000000000000E+000
4,8480415E-001	-3,052818030759075E-003	1,000000000000000E+000
4,8184913E-001	-3,519386700299061E-003	1,000000000000000E+000
4,7884837E-001	-3,992407957156323E-003	1,000000000000000E+000
4,7580516E-001	-4,507838616042301E-003	1,000000000000000E+000
4,7281513E-001	-5,057434866775304E-003	1,000000000000000E+000
4,6981868E-001	-5,651902346164327E-003	1,000000000000000E+000
4,6682113E-001	-6,331153534251982E-003	1,000000000000000E+000
4,6378535E-001	-7,115149959344244E-003	1,000000000000000E+000
4,6081549E-001	-8,053450015821764E-003	1,000000000000000E+000
4,5786256E-001	-9,180037016822462E-003	1,000000000000000E+000
4,5478269E-001	-1,047069998685457E-002	1,000000000000000E+000
4,5175076E-001	-1,204011348816475E-002	1,000000000000000E+000
4,4876274E-001	-1,385511228639960E-002	1,000000000000000E+000
4,4573554E-001	-1,593022934800489E-002	1,000000000000000E+000
4,4274649E-001	-1,815061660970790E-002	1,000000000000000E+000
4,3968421E-001	-2,033069496934747E-002	1,000000000000000E+000
4,3671963E-001	-2,231858973958911E-002	1,000000000000000E+000
4,3368602E-001	-2,359972448065029E-002	1,000000000000000E+000
4,3075752E-001	-2,391428961297148E-002	1,000000000000000E+000
4,2768121E-001	-2,322958522402074E-002	1,000000000000000E+000
4,2474654E-001	-2,178670040687092E-002	1,000000000000000E+000
4,2171931E-001	-2,004415405581034E-002	1,000000000000000E+000
4,1872388E-001	-1,835945493300389E-002	1,000000000000000E+000
4,1575611E-001	-1,691259014580709E-002	1,000000000000000E+000
4,1267788E-001	-1,575912147548678E-002	1,000000000000000E+000
4,0975258E-001	-1,491285898498845E-002	1,000000000000000E+000
4,0672216E-001	-1,426329277244625E-002	1,000000000000000E+000
4,0367138E-001	-1,378407092674544E-002	1,000000000000000E+000
4,0073031E-001	-1,344065944932912E-002	1,000000000000000E+000
3,9771894E-001	-1,318942132374787E-002	1,000000000000000E+000
3,9469811E-001	-1,305102577441966E-002	1,000000000000000E+000
3,9166340E-001	-1,297543355149733E-002	1,000000000000000E+000
3,8873491E-001	-1,293476271195457E-002	1,000000000000000E+000
3,8573319E-001	-1,293871600680846E-002	1,000000000000000E+000
3,8274205E-001	-1,300216962709022E-002	1,000000000000000E+000
3,7969247E-001	-1,306043703755166E-002	1,000000000000000E+000
3,7670559E-001	-1,313672868678528E-002	1,000000000000000E+000
3,7371337E-001	-1,324573534914620E-002	1,000000000000000E+000
3,7074769E-001	-1,333680330847481E-002	1,000000000000000E+000
3,6771092E-001	-1,348686956773063E-002	1,000000000000000E+000
3,6469987E-001	-1,365079129735691E-002	1,000000000000000E+000
3,6171481E-001	-1,377976989669752E-002	1,000000000000000E+000
3,5870561E-001	-1,392719522118568E-002	1,000000000000000E+000
3,5569000E-001	-1,408483054728588E-002	1,000000000000000E+000
3,5273603E-001	-1,425753986804013E-002	1,000000000000000E+000
3,4970137E-001	-1,444252224558810E-002	1,000000000000000E+000
3,4675798E-001	-1,460216911018628E-002	1,000000000000000E+000
3,4375203E-001	-1,481822799258213E-002	1,000000000000000E+000
3,4075907E-001	-1,500935525223665E-002	1,000000000000000E+000
3,3775166E-001	-1,517767611048410E-002	1,000000000000000E+000
3,3468404E-001	-1,535153572390576E-002	1,000000000000000E+000
3,3178636E-001	-1,558436028690491E-002	1,000000000000000E+000
3,2873997E-001	-1,576609514091933E-002	1,000000000000000E+000
3,2571909E-001	-1,589012508295887E-002	1,000000000000000E+000
3,2270142E-001	-1,611257393716664E-002	1,000000000000000E+000
3,1965718E-001	-1,636312730610894E-002	1,000000000000000E+000
3,1672129E-001	-1,650912330800133E-002	1,000000000000000E+000
3,1365791E-001	-1,671319596071852E-002	1,000000000000000E+000
3,1075278E-001	-1,687738997426180E-002	1,000000000000000E+000
3,0768409E-001	-1,703638229925651E-002	1,000000000000000E+000
3,0471206E-001	-1,721064745957478E-002	1,000000000000000E+000
3,0174217E-001	-1,743552965640516E-002	1,000000000000000E+000
2,9869154E-001	-1,755272837639776E-002	1,000000000000000E+000
2,9568553E-001	-1,772610044971124E-002	1,000000000000000E+000
2,9272926E-001	-1,784261522008528E-002	1,000000000000000E+000
2,8976163E-001	-1,796680832252140E-002	1,000000000000000E+000
2,8674075E-001	-1,809544279926426E-002	1,000000000000000E+000
2,8374219E-001	-1,825051155952884E-002	1,000000000000000E+000
2,8076378E-001	-1,837404237919145E-002	1,000000000000000E+000
2,7765369E-001	-1,845050839915269E-002	1,000000000000000E+000
2,7471563E-001	-1,858590527312495E-002	1,000000000000000E+000
2,7168310E-001	-1,869158088290308E-002	1,000000000000000E+000
2,6866966E-001	-1,879257352014110E-002	1,000000000000000E+000
2,6572946E-001	-1,888966981940343E-002	1,000000000000000E+000
2,6268628E-001	-1,894852313553061E-002	1,000000000000000E+000
2,5968030E-001	-1,895007616291211E-002	1,000000000000000E+000
2,5673267E-001	-1,901252899089795E-002	1,000000000000000E+000
2,5371709E-001	-1,911044685468877E-002	1,000000000000000E+000
2,5071004E-001	-1,910254698262023E-002	1,000000000000000E+000
2,4777305E-001	-1,909804488152111E-002	1,000000000000000E+000
2,4475321E-001	-1,913928051738917E-002	1,000000000000000E+000
2,4170581E-001	-1,913489053216433E-002	1,000000000000000E+000
2,3872209E-001	-1,909477302454551E-002	1,000000000000000E+000
2,3572458E-001	-1,911393927659445E-002	1,000000000000000E+000
2,3273341E-001	-1,910103076109093E-002	1,000000000000000E+000
2,2972973E-001	-1,904597678626063E-002	1,000000000000000E+000
2,2675219E-001	-1,903498599827375E-002	1,000000000000000E+000
2,2366865E-001	-1,894531782126257E-002	1,000000000000000E+000
2,2073488E-001	-1,890999856779818E-002	1,000000000000000E+000
2,1771611E-001	-1,885767280329503E-002	1,000000000000000E+000
2,1477273E-001	-1,875383920028861E-002	1,000000000000000E+000
2,1169558E-001	-1,866183565787516E-002	1,000000000000000E+000
2,0869061E-001	-1,855869378850752E-002	1,000000000000000E+000
2,0573671E-001	-1,847217092812070E-002	1,000000000000000E+000
2,0269559E-001	-1,834667708947541E-002	1,000000000000000E+000
1,9971825E-001	-1,821243402267257E-002	1,000000000000000E+000
1,9678552E-001	-1,807354592302150E-002	1,000000000000000E+000
1,9371048E-001	-1,794626006261024E-002	1,000000000000000E+000
1,9073102E-001	-1,777063115434446E-002	1,000000000000000E+000
1,8779828E-001	-1,764589881544509E-002	1,000000000000000E+000
1,8470733E-001	-1,751343130338362E-002	1,000000000000000E+000
1,8172787E-001	-1,733242144178566E-002	1,000000000000000E+000
1,7873776E-001	-1,716292500464237E-002	1,000000000000000E+000
1,7567548E-001	-1,702462370249241E-002	1,000000000000000E+000
1,7273317E-001	-1,686918979897134E-002	1,000000000000000E+000
1,6980043E-001	-1,671338610468825E-002	1,000000000000000E+000
1,6675299E-001	-1,653821014560539E-002	1,000000000000000E+000
1,6369604E-001	-1,634174714864350E-002	1,000000000000000E+000
1,6073780E-001	-1,617524719611224E-002	1,000000000000000E+000
1,5773793E-001	-1,599338486391094E-002	1,000000000000000E+000
1,5475763E-001	-1,580065631311878E-002	1,000000000000000E+000
1,5176755E-001	-1,560160268019972E-002	1,000000000000000E+000
1,4872755E-001	-1,538593793718689E-002	1,000000000000000E+000
1,4576082E-001	-1,520848312508105E-002	1,000000000000000E+000
1,4273252E-001	-1,500998768792328E-002	1,000000000000000E+000
1,3976048E-001	-1,484988600080583E-002	1,000000000000000E+000
1,3673322E-001	-1,464428175705361E-002	1,000000000000000E+000
1,3377926E-001	-1,444971303360325E-002	1,000000000000000E+000
1,3076368E-001	-1,422825512553344E-002	1,000000000000000E+000
1,2779483E-001	-1,403657204902869E-002	1,000000000000000E+000
1,2472830E-001	-1,385470162475250E-002	1,000000000000000E+000
1,2179130E-001	-1,364623156364039E-002	1,000000000000000E+000
1,1869442E-001	-1,344976668276855E-002	1,000000000000000E+000
1,1575911E-001	-1,326680332361538E-002	1,000000000000000E+000
1,1275735E-001	-1,307669246216603E-002	1,000000000000000E+000
1,0970674E-001	-1,287122776949895E-002	1,000000000000000E+000
1,0669541E-001	-1,268392850345529E-002	1,000000000000000E+000
1,0378071E-001	-1,251494774028397E-002	1,000000000000000E+000
1,0078108E-001	-1,232682864190671E-002	1,000000000000000E+000
9,7720906E-002	-1,214045487872757E-002	1,000000000000000E+000
9,4734229E-002	-1,195996951050615E-002	1,000000000000000E+000
9,1797024E-002	-1,177007421775129E-002	1,000000000000000E+000
8,8700749E-002	-1,158579953831607E-002	1,000000000000000E+000
8,5789248E-002	-1,140176115624604E-002	1,000000000000000E+000
8,2692981E-002	-1,122515504133609E-002	1,000000000000000E+000
7,9769790E-002	-1,106608947249322E-002	1,000000000000000E+000
7,6723427E-002	-1,089353428423923E-002	1,000000000000000E+000
7,3804483E-002	-1,069512106764631E-002	1,000000000000000E+000
7,0691101E-002	-1,053995735650924E-002	1,000000000000000E+000
6,7755297E-002	-1,039868123753338E-002	1,000000000000000E+000
6,4760968E-002	-1,020731864158642E-002	1,000000000000000E+000
6,1752830E-002	-1,007053267544395E-002	1,000000000000000E+000
5,8722392E-002	-9,925570455841790E-003	1,000000000000000E+000
5,5782218E-002	-9,754653390411955E-003	1,000000000000000E+000
5,2753903E-002	-9,608412306724615E-003	1,000000000000000E+000
4,9774438E-002	-9,452227443929699E-003	1,000000000000000E+000
4,6725728E-002	-9,325236303018611E-003	1,000000000000000E+000
4,3740120E-002	-9,165797392690422E-003	1,000000000000000E+000
4,0756408E-002	-9,016299490722357E-003	1,000000000000000E+000
3,7769508E-002	-8,893104096335577E-003	1,000000000000000E+000
3,4801718E-002	-8,759246469444176E-003	1,000000000000000E+000
3,1818006E-002	-8,626821363709576E-003	1,000000000000000E+000
2,8773768E-002	-8,503491298903765E-003	1,000000000000000E+000
2,5732717E-002	-8,381797010863010E-003	1,000000000000000E+000
2,2742631E-002	-8,248229499599045E-003	1,000000000000000E+000
1,9711139E-002	-8,128242625257253E-003	1,000000000000000E+000
1,6756093E-002	-7,996132573568980E-003	1,000000000000000E+000
1,3769194E-002	-7,867154910859014E-003	1,000000000000000E+000
1,0735575E-002	-7,749801552843921E-003	1,000000000000000E+000
7,7289250E-003	-7,634999054303676E-003	1,000000000000000E+000
4,7150562E-003	-7,525507490707128E-003	1,000000000000000E+000
1,7770012E-003	-7,431874211794184E-003	1,000000000000000E+000
-2,1178722E-004	-7,349314825499775E-003	1,000000000000000E+000