File: fig_4_nife_ceo2/EIS_1_nyquist/Fe100_OCP+EIS_1_02_PEIS_C01.txt
freq/Hz	Re(Z)/Ohm	-Im(Z)/Ohm	|Z|/Ohm	Phase(Z)/deg	time/s	<Ewe>/V	<I>/mA	Cs/�F	Cp/�F	cycle number	I Range	|Ewe|/V	|I|/A	Ns	(Q-Qo)/mA.h	Re(Y)/Ohm-1	Im(Y)/Ohm-1	|Y|/Ohm-1	Phase(Y)/deg	Re(C)/nF	Im(C)/nF	|C|/nF	Phase(C)/deg	Re(M)	Im(M)	|M|	Phase(M)/deg	Re(Permittivity)	Im(Permittivity)	|Permittivity|	Phase(Permittivity)/deg	Re(Resistivity)/Ohm.cm	Im(Resistivity)/Ohm.cm	|Resistivity|/Ohm.cm	Phase(Resistivity)/deg	Re(Conductivity)/mS/cm	Im(Conductivity)/mS/cm	|Conductivity|/mS/cm
1,9999814E+005	6,5037112E+000	-5,3593773E-001	6,5257559E+000	4,7108097E+000	6,013900721620157E+002	6,9979936E-001	2,2810941E+000	-1,4848406E+000	-1,0014906E-002	1,000000000000000E+000	10	9,9010421E-003	1,5172253E-003	0	7,205124265027957E-004	1,5272130E-001	-1,2584984E-002	1,5323895E-001	-4,7108097E+000	-1,0014902E+001	1,2153288E+002	1,2194482E+002	-9,4710808E+001	0,0000000E+000	0,0000000E+000	0,0000000E+000	9,4710808E+001	0,0000000E+000	0,0000000E+000	0,0000000E+000	-9,4710808E+001	0,0000000E+000	0,0000000E+000	0,0000000E+000	4,7108097E+000	0,0000000E+000	0,0000000E+000	0,0000000E+000	-4,7108097E+000	1,2135200E+001	8,5289192E+001	7,205124265027957E-004
1,5885727E+005	6,2210960E+000	-1,6006242E-001	6,2231550E+000	1,4738363E+000	6,018120623687137E+002	6,9983965E-001	2,2434649E+000	-6,2592702E+000	-4,1407705E-003	1,000000000000000E+000	10	1,0586386E-002	1,7011283E-003	0	9,794745360306827E-004	1,6063704E-001	-4,1330256E-003	1,6069020E-001	-1,4738363E+000	-4,1407771E+000	1,6093805E+002	1,6099130E+002	-9,1473839E+001	0,0000000E+000	0,0000000E+000	0,0000000E+000	9,1473839E+001	0,0000000E+000	0,0000000E+000	0,0000000E+000	-9,1473839E+001	0,0000000E+000	0,0000000E+000	0,0000000E+000	1,4738363E+000	0,0000000E+000	0,0000000E+000	0,0000000E+000	-1,4738363E+000	3,8866688E+001	8,8526161E+001	2,589621095278869E-004
1,2618765E+005	6,1223664E+000	6,3600987E-002	6,1226969E+000	-5,9518439E-001	6,022350659354561E+002	6,9986510E-001	2,2286706E+000	1,9830763E+001	2,1398417E-003	1,000000000000000E+000	10	1,0664536E-002	1,7418036E-003	0	1,236310288946894E-003	1,6331792E-001	1,6965956E-003	1,6332673E-001	5,9518439E-001	2,1398411E+000	2,0598570E+002	2,0599681E+002	-8,9404816E+001	0,0000000E+000	0,0000000E+000	0,0000000E+000	8,9404816E+001	0,0000000E+000	0,0000000E+000	0,0000000E+000	-8,9404816E+001	0,0000000E+000	0,0000000E+000	0,0000000E+000	-5,9518439E-001	0,0000000E+000	0,0000000E+000	0,0000000E+000	5,9518439E-001	9,6262131E+001	8,9404816E+001	2,568357529162118E-004
1,0022640E+005	6,1038094E+000	1,9824062E-001	6,1070275E+000	-1,8602089E+000	6,026560752888181E+002	6,9988304E-001	2,1966078E+000	8,0102367E+000	8,4405523E-003	1,000000000000000E+000	10	1,0601019E-002	1,7358722E-003	0	1,489349792621280E-003	1,6365948E-001	5,3153625E-003	1,6374578E-001	1,8602089E+000	8,4405432E+000	2,5988382E+002	2,6002084E+002	-8,8139793E+001	0,0000000E+000	0,0000000E+000	0,0000000E+000	8,8139793E+001	0,0000000E+000	0,0000000E+000	0,0000000E+000	-8,8139793E+001	0,0000000E+000	0,0000000E+000	0,0000000E+000	-1,8602089E+000	0,0000000E+000	0,0000000E+000	0,0000000E+000	1,8602089E+000	3,0789902E+001	8,8139793E+001	2,530395036743852E-004
7,9609563E+004	6,1065474E+000	2,9291481E-001	6,1135683E+000	-2,7462211E+000	6,030780726155353E+002	6,9988275E-001	2,1978755E+000	6,8251719E+000	1,5667751E-002	1,000000000000000E+000	10	1,0460319E-002	1,7110006E-003	0	1,740692139711179E-003	1,6338274E-001	7,8370357E-003	1,6357060E-001	2,7462211E+000	1,5667767E+001	3,2663379E+002	3,2700934E+002	-8,7253777E+001	0,0000000E+000	0,0000000E+000	0,0000000E+000	8,7253777E+001	0,0000000E+000	0,0000000E+000	0,0000000E+000	-8,7253777E+001	0,0000000E+000	0,0000000E+000	0,0000000E+000	-2,7462211E+000	0,0000000E+000	0,0000000E+000	0,0000000E+000	2,7462211E+000	2,0847521E+001	8,7253777E+001	2,513423470898997E-004
6,3233004E+004	6,1260271E+000	3,9509556E-001	6,1387548E+000	-3,6901565E+000	6,035000750889158E+002	6,9989645E-001	2,1696441E+000	6,3705096E+000	2,6388694E-002	1,000000000000000E+000	10	1,0394550E-002	1,6932668E-003	0	1,991920843525609E-003	1,6256174E-001	1,0484351E-002	1,6289948E-001	3,6901565E+000	2,6388683E+001	4,0916144E+002	4,1001151E+002	-8,6309845E+001	0,0000000E+000	0,0000000E+000	0,0000000E+000	8,6309845E+001	0,0000000E+000	0,0000000E+000	0,0000000E+000	-8,6309845E+001	0,0000000E+000	0,0000000E+000	0,0000000E+000	-3,6901565E+000	0,0000000E+000	0,0000000E+000	0,0000000E+000	3,6901565E+000	1,5505178E+001	8,6309845E+001	2,512287038144293E-004
5,0224539E+004	6,1554775E+000	4,8611307E-001	6,1746426E+000	-4,5154157E+000	6,039230639890156E+002	6,9988585E-001	2,1645637E+000	6,5187883E+000	4,0403392E-002	1,000000000000000E+000	10	1,0310310E-002	1,6697824E-003	0	2,243050922282506E-003	1,6145001E-001	1,2750101E-002	1,6195269E-001	4,5154157E+000	4,0403419E+001	5,1161383E+002	5,1320673E+002	-8,5484581E+001	0,0000000E+000	0,0000000E+000	0,0000000E+000	8,5484581E+001	0,0000000E+000	0,0000000E+000	0,0000000E+000	-8,5484581E+001	0,0000000E+000	0,0000000E+000	0,0000000E+000	-4,5154157E+000	0,0000000E+000	0,0000000E+000	0,0000000E+000	4,5154157E+000	1,2662645E+001	8,5484581E+001	2,511300787568973E-004
3,9897566E+004	6,1924047E+000	6,0287160E-001	6,2216821E+000	-5,5605998E+000	6,043450804623863E+002	6,9987869E-001	2,1441882E+000	6,6168137E+000	6,2127363E-002	1,000000000000000E+000	10	1,0318280E-002	1,6584389E-003	0	2,492518038928315E-003	1,5997189E-001	1,5574324E-002	1,6072823E-001	5,5605998E+000	6,2127373E+001	6,3814209E+002	6,4115924E+002	-8,4439400E+001	0,0000000E+000	0,0000000E+000	0,0000000E+000	8,4439400E+001	0,0000000E+000	0,0000000E+000	0,0000000E+000	-8,4439400E+001	0,0000000E+000	0,0000000E+000	0,0000000E+000	-5,5605998E+000	0,0000000E+000	0,0000000E+000	0,0000000E+000	5,5605998E+000	1,0271515E+001	8,4439400E+001	2,494671166458086E-004
3,1686090E+004	6,2364287E+000	7,4579781E-001	6,2808642E+000	-6,8194633E+000	6,047670710157690E+002	6,9989449E-001	2,1346958E+000	6,7348876E+000	9,4958484E-002	1,000000000000000E+000	10	1,0240409E-002	1,6304139E-003	0	2,737699820785441E-003	1,5808736E-001	1,8905243E-002	1,5921375E-001	6,8194633E+000	9,4958511E+001	7,9405139E+002	7,9970917E+002	-8,3180534E+001	0,0000000E+000	0,0000000E+000	0,0000000E+000	8,3180534E+001	0,0000000E+000	0,0000000E+000	0,0000000E+000	-8,3180534E+001	0,0000000E+000	0,0000000E+000	0,0000000E+000	-6,8194633E+000	0,0000000E+000	0,0000000E+000	0,0000000E+000	6,8194633E+000	8,3620901E+000	8,3180534E+001	2,451817818571260E-004
2,5172580E+004	6,2763486E+000	9,0829819E-001	6,3417315E+000	-8,2345400E+000	6,051890670357825E+002	6,9989985E-001	2,1257803E+000	6,9608765E+000	1,4279242E-001	1,000000000000000E+000	10	1,0200522E-002	1,6084758E-003	0	2,982222196927074E-003	1,5605991E-001	2,2584617E-002	1,5768564E-001	8,2345400E+000	1,4279245E+002	9,8669684E+002	9,9697559E+002	-8,1765457E+001	0,0000000E+000	0,0000000E+000	0,0000000E+000	8,1765457E+001	0,0000000E+000	0,0000000E+000	0,0000000E+000	-8,1765457E+001	0,0000000E+000	0,0000000E+000	0,0000000E+000	-8,2345400E+000	0,0000000E+000	0,0000000E+000	0,0000000E+000	8,2345400E+000	6,9100089E+000	8,1765457E+001	2,445223761416335E-004
1,9995176E+004	6,3364859E+000	1,1159056E+000	6,4339957E+000	-9,9878292E+000	6,056110745224723E+002	6,9991046E-001	2,1230941E+000	7,1329212E+000	2,1456596E-001	1,000000000000000E+000	10	1,0176119E-002	1,5816174E-003	0	3,227016761417048E-003	1,5306890E-001	2,6956651E-002	1,5542442E-001	9,9878292E+000	2,1456599E+002	1,2183773E+003	1,2371265E+003	-8,0012169E+001	0,0000000E+000	0,0000000E+000	0,0000000E+000	8,0012169E+001	0,0000000E+000	0,0000000E+000	0,0000000E+000	-8,0012169E+001	0,0000000E+000	0,0000000E+000	0,0000000E+000	-9,9878292E+000	0,0000000E+000	0,0000000E+000	0,0000000E+000	9,9878292E+000	5,6783347E+000	8,0012169E+001	2,447945644899739E-004
1,5884798E+004	6,4170079E+000	1,3684292E+000	6,5612946E+000	-1,2038029E+001	6,060330779292126E+002	6,9989616E-001	2,0935667E+000	7,3217711E+000	3,1847966E-001	1,000000000000000E+000	10	1,0163303E-002	1,5489783E-003	0	3,465806011649709E-003	1,4905737E-001	3,1786542E-002	1,5240894E-001	1,2038029E+001	3,1847961E+002	1,4934543E+003	1,5270348E+003	-7,7961975E+001	0,0000000E+000	0,0000000E+000	0,0000000E+000	7,7961975E+001	0,0000000E+000	0,0000000E+000	0,0000000E+000	-7,7961975E+001	0,0000000E+000	0,0000000E+000	0,0000000E+000	-1,2038029E+001	0,0000000E+000	0,0000000E+000	0,0000000E+000	1,2038029E+001	4,6893239E+000	7,7961975E+001	2,387892502326606E-004
1,2618766E+004	6,5143342E+000	1,6815052E+000	6,7278533E+000	-1,4473483E+001	6,063190685027948E+002	6,9990987E-001	2,0867960E+000	7,5007567E+000	4,6854195E-001	1,000000000000000E+000	10	1,0967968E-002	1,6302329E-003	0	3,625978330356302E-003	1,4391863E-001	3,7148833E-002	1,4863582E-001	1,4473483E+001	4,6854181E+002	1,8151824E+003	1,8746782E+003	-7,5526520E+001	0,0000000E+000	0,0000000E+000	0,0000000E+000	7,5526520E+001	0,0000000E+000	0,0000000E+000	0,0000000E+000	-7,5526520E+001	0,0000000E+000	0,0000000E+000	0,0000000E+000	-1,4473483E+001	0,0000000E+000	0,0000000E+000	0,0000000E+000	1,4473483E+001	3,8741088E+000	7,5526520E+001	1,601723187065929E-004
1,0020785E+004	6,6323566E+000	2,0611689E+000	6,9452553E+000	-1,7263926E+001	6,067410599095019E+002	6,9991165E-001	2,0858150E+000	7,7055707E+000	6,7866516E-001	1,000000000000000E+000	10	1,0119322E-002	1,4570123E-003	0	3,862251252367472E-003	1,3749643E-001	4,2730421E-002	1,4398319E-001	1,7263926E+001	6,7866510E+002	2,1837849E+003	2,2868105E+003	-7,2736076E+001	0,0000000E+000	0,0000000E+000	0,0000000E+000	7,2736076E+001	0,0000000E+000	0,0000000E+000	0,0000000E+000	-7,2736076E+001	0,0000000E+000	0,0000000E+000	0,0000000E+000	-1,7263926E+001	0,0000000E+000	0,0000000E+000	0,0000000E+000	1,7263926E+001	3,2177649E+000	7,2736076E+001	2,362729220111701E-004
7,9597607E+003	6,7721338E+000	2,5202217E+000	7,2258782E+000	-2,0412542E+001	6,070693027784801E+002	6,9992137E-001	2,0882649E+000	7,9338017E+000	9,6511173E-001	1,000000000000000E+000	10	1,0392136E-002	1,4381831E-003	0	4,044567474348988E-003	1,2970127E-001	4,8267797E-002	1,3839148E-001	2,0412542E+001	9,6511176E+002	2,5933694E+003	2,7671294E+003	-6,9587456E+001	0,0000000E+000	0,0000000E+000	0,0000000E+000	6,9587456E+001	0,0000000E+000	0,0000000E+000	0,0000000E+000	-6,9587456E+001	0,0000000E+000	0,0000000E+000	0,0000000E+000	-2,0412542E+001	0,0000000E+000	0,0000000E+000	0,0000000E+000	2,0412542E+001	2,6871183E+000	6,9587456E+001	1,823162219815161E-004
6,3238188E+003	6,9667287E+000	3,0860167E+000	7,6196332E+000	-2,3891665E+001	6,074618717304402E+002	6,9993657E-001	2,0757883E+000	8,1553469E+000	1,3377373E+000	1,000000000000000E+000	10	1,0522488E-002	1,3809704E-003	0	4,265765046573762E-003	1,1999433E-001	5,3153288E-002	1,3123991E-001	2,3891665E+001	1,3377374E+003	3,0199624E+003	3,3029856E+003	-6,6108337E+001	0,0000000E+000	0,0000000E+000	0,0000000E+000	6,6108337E+001	0,0000000E+000	0,0000000E+000	0,0000000E+000	-6,6108337E+001	0,0000000E+000	0,0000000E+000	0,0000000E+000	-2,3891665E+001	0,0000000E+000	0,0000000E+000	0,0000000E+000	2,3891665E+001	2,2575150E+000	6,6108337E+001	2,211975722247739E-004
5,0216069E+003	7,2306519E+000	3,7663240E+000	8,1527615E+000	-2,7514244E+001	6,079282824992770E+002	6,9998723E-001	2,0834861E+000	8,4151087E+000	1,7959143E+000	1,000000000000000E+000	10	1,0554242E-002	1,2945604E-003	0	4,531335814771307E-003	1,0878474E-001	5,6664128E-002	1,2265783E-001	2,7514244E+001	1,7959144E+003	3,4478264E+003	3,8875205E+003	-6,2485756E+001	0,0000000E+000	0,0000000E+000	0,0000000E+000	6,2485756E+001	0,0000000E+000	0,0000000E+000	0,0000000E+000	-6,2485756E+001	0,0000000E+000	0,0000000E+000	0,0000000E+000	-2,7514244E+001	0,0000000E+000	0,0000000E+000	0,0000000E+000	2,7514244E+001	1,9198167E+000	6,2485756E+001	2,655707681975452E-004
3,9861731E+003	7,6072073E+000	4,6087861E+000	8,8944092E+000	-3,1209354E+001	6,083945066280576E+002	6,9999826E-001	2,0690398E+000	8,6631823E+000	2,3260355E+000	1,000000000000000E+000	10	1,0524174E-002	1,1832347E-003	0	4,796215510073467E-003	9,6159242E-002	5,8257569E-002	1,1243018E-001	3,1209354E+001	2,3260354E+003	3,8393262E+003	4,4889717E+003	-5,8790646E+001	0,0000000E+000	0,0000000E+000	0,0000000E+000	5,8790646E+001	0,0000000E+000	0,0000000E+000	0,0000000E+000	-5,8790646E+001	0,0000000E+000	0,0000000E+000	0,0000000E+000	-3,1209354E+001	0,0000000E+000	0,0000000E+000	0,0000000E+000	3,1209354E+001	1,6505880E+000	5,8790649E+001	2,648796953021604E-004
3,1669595E+003	8,1062193E+000	5,5593467E+000	9,8294010E+000	-3,4442818E+001	6,088595179301483E+002	6,9999188E-001	2,0760748E+000	9,0396967E+000	2,8916602E+000	1,000000000000000E+000	10	1,0453315E-002	1,0634743E-003	0	5,059435188461961E-003	8,3900437E-002	5,7539973E-002	1,0173560E-001	3,4442818E+001	2,8916604E+003	4,2164004E+003	5,1127031E+003	-5,5557182E+001	0,0000000E+000	0,0000000E+000	0,0000000E+000	5,5557182E+001	0,0000000E+000	0,0000000E+000	0,0000000E+000	-5,5557182E+001	0,0000000E+000	0,0000000E+000	0,0000000E+000	-3,4442818E+001	0,0000000E+000	0,0000000E+000	0,0000000E+000	3,4442818E+001	1,4581244E+000	5,5557182E+001	2,632196783884941E-004
2,5158047E+003	8,8176918E+000	6,6827416E+000	1,1063938E+001	-3,7157715E+001	6,093232508055371E+002	6,9996744E-001	2,0596182E+000	9,4664803E+000	3,4536507E+000	1,000000000000000E+000	10	1,0388820E-002	9,3898026E-004	0	5,321827259109770E-003	7,2033659E-002	5,4592777E-002	9,0383731E-002	3,7157715E+001	3,4536506E+003	4,5569961E+003	5,7178594E+003	-5,2842285E+001	0,0000000E+000	0,0000000E+000	0,0000000E+000	5,2842285E+001	0,0000000E+000	0,0000000E+000	0,0000000E+000	-5,2842285E+001	0,0000000E+000	0,0000000E+000	0,0000000E+000	-3,7157715E+001	0,0000000E+000	0,0000000E+000	0,0000000E+000	3,7157715E+001	1,3194722E+000	5,2842285E+001	2,623920706478081E-004
1,9980818E+003	9,7375908E+000	7,9742007E+000	1,2586046E+001	-3,9314354E+001	6,097895257876517E+002	6,9999909E-001	2,0470223E+000	9,9889469E+000	4,0097322E+000	1,000000000000000E+000	10	1,0310002E-002	8,1916130E-004	0	5,582126190454518E-003	6,1471369E-002	5,0339453E-002	7,9453066E-002	3,9314354E+001	4,0097319E+003	4,8964321E+003	6,3287437E+003	-5,0685646E+001	0,0000000E+000	0,0000000E+000	0,0000000E+000	5,0685646E+001	0,0000000E+000	0,0000000E+000	0,0000000E+000	-5,0685646E+001	0,0000000E+000	0,0000000E+000	0,0000000E+000	-3,9314354E+001	0,0000000E+000	0,0000000E+000	0,0000000E+000	3,9314354E+001	1,2211369E+000	5,0685638E+001	2,602989313447487E-004
1,5884750E+003	1,0947634E+001	9,3369741E+000	1,4388529E+001	-4,0460068E+001	6,102545344230748E+002	7,0000035E-001	2,0460114E+000	1,0730837E+001	4,5186958E+000	1,000000000000000E+000	10	1,0250110E-002	7,1238069E-004	0	5,842285636445559E-003	5,2879512E-002	4,5099668E-002	6,9499806E-002	4,0460068E+001	4,5186958E+003	5,2981860E+003	6,9634321E+003	-4,9539932E+001	0,0000000E+000	0,0000000E+000	0,0000000E+000	4,9539932E+001	0,0000000E+000	0,0000000E+000	0,0000000E+000	-4,9539932E+001	0,0000000E+000	0,0000000E+000	0,0000000E+000	-4,0460068E+001	0,0000000E+000	0,0000000E+000	0,0000000E+000	4,0460068E+001	1,1725034E+000	4,9539932E+001	2,601594459910412E-004
1,2604036E+003	1,2543899E+001	1,0766654E+001	1,6530888E+001	-4,0640087E+001	6,107182561517984E+002	6,9999874E-001	2,0387847E+000	1,1728157E+001	4,9750667E+000	1,000000000000000E+000	10	1,0215920E-002	6,1798986E-004	0	6,101483941124532E-003	4,5902908E-002	3,9399292E-002	6,0492821E-002	4,0640087E+001	4,9750674E+003	5,7962983E+003	7,6386104E+003	-4,9359913E+001	0,0000000E+000	0,0000000E+000	0,0000000E+000	4,9359913E+001	0,0000000E+000	0,0000000E+000	0,0000000E+000	-4,9359913E+001	0,0000000E+000	0,0000000E+000	0,0000000E+000	-4,0640087E+001	0,0000000E+000	0,0000000E+000	0,0000000E+000	4,0640087E+001	1,1650693E+000	4,9359909E+001	2,591983046789726E-004
1,0016024E+003	1,4503120E+001	1,2211575E+001	1,8959511E+001	-4,0097256E+001	6,111830081471562E+002	6,9999939E-001	2,0239606E+000	1,3012272E+001	5,3981156E+000	1,000000000000000E+000	10	1,0181310E-002	5,3700275E-004	0	6,359175671763550E-003	4,0346622E-002	3,3971708E-002	5,2743975E-002	4,0097256E+001	5,3981152E+003	6,4110908E+003	8,3810342E+003	-4,9902744E+001	0,0000000E+000	0,0000000E+000	0,0000000E+000	4,9902744E+001	0,0000000E+000	0,0000000E+000	0,0000000E+000	-4,9902744E+001	0,0000000E+000	0,0000000E+000	0,0000000E+000	-4,0097256E+001	0,0000000E+000	0,0000000E+000	0,0000000E+000	4,0097256E+001	1,1876535E+000	4,9902740E+001	2,576917306390180E-004
7,9525409E+002	1,6869177E+001	1,3392472E+001	2,1538975E+001	-3,8446133E+001	6,116482709159682E+002	7,0000184E-001	2,0322857E+000	1,4943539E+001	5,7772999E+000	1,000000000000000E+000	10	1,0151805E-002	4,7132259E-004	0	6,616658151586591E-003	3,6361668E-002	2,8867604E-002	4,6427466E-002	3,8446133E+001	5,7773008E+003	7,2770952E+003	9,2915723E+003	-5,1553867E+001	0,0000000E+000	0,0000000E+000	0,0000000E+000	5,1553867E+001	0,0000000E+000	0,0000000E+000	0,0000000E+000	-5,1553867E+001	0,0000000E+000	0,0000000E+000	0,0000000E+000	-3,8446133E+001	0,0000000E+000	0,0000000E+000	0,0000000E+000	3,8446133E+001	1,2596014E+000	5,1553864E+001	2,574824798230414E-004
6,3181964E+002	1,9618980E+001	1,4274414E+001	2,4262384E+001	-3,6038956E+001	6,121127730446606E+002	7,0000184E-001	2,0340338E+000	1,7646912E+001	6,1082716E+000	1,000000000000000E+000	10	1,0142800E-002	4,1804631E-004	0	6,874261308250108E-003	3,3328015E-002	2,4248861E-002	4,1216064E-002	3,6038956E+001	6,1082715E+003	8,3953047E+003	1,0382299E+004	-5,3961044E+001	0,0000000E+000	0,0000000E+000	0,0000000E+000	5,3961044E+001	0,0000000E+000	0,0000000E+000	0,0000000E+000	-5,3961044E+001	0,0000000E+000	0,0000000E+000	0,0000000E+000	-3,6038956E+001	0,0000000E+000	0,0000000E+000	0,0000000E+000	3,6038956E+001	1,3744158E+000	5,3961044E+001	2,576031566635167E-004
5,0208865E+002	2,2663284E+001	1,4678926E+001	2,7001764E+001	-3,2930981E+001	6,125764924000396E+002	7,0000714E-001	2,0327399E+000	2,1594614E+001	6,3818955E+000	1,000000000000000E+000	10	1,0134706E-002	3,7533496E-004	0	7,131943511778011E-003	3,1084117E-002	2,0133067E-002	3,7034616E-002	3,2930981E+001	6,3818955E+003	9,8532217E+003	1,1739445E+004	-5,7069019E+001	0,0000000E+000	0,0000000E+000	0,0000000E+000	5,7069019E+001	0,0000000E+000	0,0000000E+000	0,0000000E+000	-5,7069019E+001	0,0000000E+000	0,0000000E+000	0,0000000E+000	-3,2930981E+001	0,0000000E+000	0,0000000E+000	0,0000000E+000	3,2930981E+001	1,5439335E+000	5,7069016E+001	2,576822035279024E-004
3,9859698E+002	2,5816896E+001	1,4790241E+001	2,9753376E+001	-2,9807962E+001	6,132960460075265E+002	6,9998538E-001	2,0164416E+000	2,6996712E+001	6,6709681E+000	1,000000000000000E+000	11	1,0229957E-002	3,4382509E-004	0	7,514014146540857E-003	2,9162956E-002	1,6707165E-002	3,3609632E-002	2,9807962E+001	6,6709678E+003	1,1644414E+004	1,3419918E+004	-6,0192039E+001	0,0000000E+000	0,0000000E+000	0,0000000E+000	6,0192039E+001	0,0000000E+000	0,0000000E+000	0,0000000E+000	-6,0192039E+001	0,0000000E+000	0,0000000E+000	0,0000000E+000	-2,9807962E+001	0,0000000E+000	0,0000000E+000	0,0000000E+000	2,9807962E+001	1,7455359E+000	6,0192039E+001	3,820706347628464E-004
3,1672299E+002	2,8900331E+001	1,4299696E+001	3,2244541E+001	-2,6325905E+001	6,137592656562338E+002	6,9998389E-001	2,0088427E+000	3,5140968E+001	6,9112234E+000	1,000000000000000E+000	11	1,0188313E-002	3,1597019E-004	0	7,768659648581097E-003	2,7796518E-002	1,3753536E-002	3,1013001E-002	2,6325905E+001	6,9112231E+003	1,3967895E+004	1,5584193E+004	-6,3674095E+001	0,0000000E+000	0,0000000E+000	0,0000000E+000	6,3674095E+001	0,0000000E+000	0,0000000E+000	0,0000000E+000	-6,3674095E+001	0,0000000E+000	0,0000000E+000	0,0000000E+000	-2,6325905E+001	0,0000000E+000	0,0000000E+000	0,0000000E+000	2,6325905E+001	2,0210452E+000	6,3674095E+001	2,546455020402405E-004
2,5169135E+002	3,1594114E+001	1,3373820E+001	3,4308121E+001	-2,2942989E+001	6,142219806915236E+002	6,9998181E-001	2,0135577E+000	4,7282059E+001	7,1847801E+000	1,000000000000000E+000	11	1,0165039E-002	2,9628669E-004	0	8,022819369582575E-003	2,6841842E-002	1,1362179E-002	2,9147618E-002	2,2942989E+001	7,1847813E+003	1,6973217E+004	1,8431256E+004	-6,7057007E+001	0,0000000E+000	0,0000000E+000	0,0000000E+000	6,7057007E+001	0,0000000E+000	0,0000000E+000	0,0000000E+000	-6,7057007E+001	0,0000000E+000	0,0000000E+000	0,0000000E+000	-2,2942989E+001	0,0000000E+000	0,0000000E+000	0,0000000E+000	2,2942989E+001	2,3623850E+000	6,7057007E+001	2,541597210014776E-004
1,9980818E+002	3,3855106E+001	1,2040617E+001	3,5932503E+001	-1,9578001E+001	6,146885154870251E+002	6,9997907E-001	2,0142205E+000	6,6154305E+001	7,4281497E+000	1,000000000000000E+000	11	1,0138444E-002	2,8215244E-004	0	8,279199574787247E-003	2,6221000E-002	9,3255360E-003	2,7829956E-002	1,9578001E+001	7,4281504E+003	2,0886041E+004	2,2167637E+004	-7,0421997E+001	0,0000000E+000	0,0000000E+000	0,0000000E+000	7,0421997E+001	0,0000000E+000	0,0000000E+000	0,0000000E+000	-7,0421997E+001	0,0000000E+000	0,0000000E+000	0,0000000E+000	-1,9578001E+001	0,0000000E+000	0,0000000E+000	0,0000000E+000	1,9578001E+001	2,8117418E+000	7,0421997E+001	2,563802052046715E-004
1,5862943E+002	3,5836899E+001	1,0561490E+001	3,7360786E+001	-1,6420769E+001	6,151560520958592E+002	6,9998169E-001	2,0064659E+000	9,4997284E+001	7,5915346E+000	1,000000000000000E+000	11	1,0136881E-002	2,7132407E-004	0	8,535933519114533E-003	2,5674287E-002	7,5664674E-003	2,6766032E-002	1,6420769E+001	7,5915337E+003	2,5759342E+004	2,6854703E+004	-7,3579231E+001	0,0000000E+000	0,0000000E+000	0,0000000E+000	7,3579231E+001	0,0000000E+000	0,0000000E+000	0,0000000E+000	-7,3579231E+001	0,0000000E+000	0,0000000E+000	0,0000000E+000	-1,6420769E+001	0,0000000E+000	0,0000000E+000	0,0000000E+000	1,6420769E+001	3,3931670E+000	7,3579231E+001	2,567339443272868E-004
1,2600809E+002	3,7419857E+001	9,1516085E+000	3,8522690E+001	-1,3742817E+001	6,156187299578305E+002	6,9998139E-001	2,0060585E+000	1,3801434E+002	7,7890754E+000	1,000000000000000E+000	11	1,0128896E-002	2,6293323E-004	0	8,789386962812135E-003	2,5215577E-002	6,1668623E-003	2,5958728E-002	1,3742817E+001	7,7890737E+003	3,1848621E+004	3,2787258E+004	-7,6257187E+001	0,0000000E+000	0,0000000E+000	0,0000000E+000	7,6257187E+001	0,0000000E+000	0,0000000E+000	0,0000000E+000	-7,6257187E+001	0,0000000E+000	0,0000000E+000	0,0000000E+000	-1,3742817E+001	0,0000000E+000	0,0000000E+000	0,0000000E+000	1,3742817E+001	4,0888829E+000	7,6257187E+001	2,534534436976019E-004
1,0016024E+002	3,8647556E+001	7,9432058E+000	3,9455395E+001	-1,1614228E+001	6,160850264599867E+002	6,9997996E-001	2,0034809E+000	2,0004558E+002	8,1078892E+000	1,000000000000000E+000	11	1,0123492E-002	2,5658068E-004	0	9,043293504940838E-003	2,4826143E-002	5,1025003E-003	2,5345076E-002	1,1614228E+001	8,1078887E+003	3,9448820E+004	4,0273406E+004	-7,8385773E+001	0,0000000E+000	0,0000000E+000	0,0000000E+000	7,8385773E+001	0,0000000E+000	0,0000000E+000	0,0000000E+000	-7,8385773E+001	0,0000000E+000	0,0000000E+000	0,0000000E+000	-1,1614228E+001	0,0000000E+000	0,0000000E+000	0,0000000E+000	1,1614228E+001	4,8654861E+000	7,8385773E+001	2,539065421287030E-004
7,9516548E+001	3,9476715E+001	6,6736898E+000	4,0036846E+001	-9,5953484E+000	6,165535525356099E+002	6,9997436E-001	1,9981031E+000	2,9991388E+002	8,3331442E+000	1,000000000000000E+000	11	1,0119357E-002	2,5275111E-004	0	9,298758816781764E-003	2,4627553E-002	4,1633826E-003	2,4976993E-002	9,5953484E+000	8,3331475E+003	4,9292844E+004	4,9992258E+004	-8,0404648E+001	0,0000000E+000	0,0000000E+000	0,0000000E+000	8,0404648E+001	0,0000000E+000	0,0000000E+000	0,0000000E+000	-8,0404648E+001	0,0000000E+000	0,0000000E+000	0,0000000E+000	-9,5953484E+000	0,0000000E+000	0,0000000E+000	0,0000000E+000	9,5953484E+000	5,9152756E+000	8,0404648E+001	2,554653118409262E-004
6,3160763E+001	4,0188240E+001	5,6668239E+000	4,0585804E+001	-8,0261908E+000	6,170301778381545E+002	6,9997454E-001	1,9917988E+000	4,4466510E+002	8,6689034E+000	1,000000000000000E+000	11	1,0119740E-002	2,4934186E-004	0	9,558781595689271E-003	2,4397802E-002	3,4402609E-003	2,4639158E-002	8,0261908E+000	8,6689043E+003	6,1478527E+004	6,2086707E+004	-8,1973808E+001	0,0000000E+000	0,0000000E+000	0,0000000E+000	8,1973808E+001	0,0000000E+000	0,0000000E+000	0,0000000E+000	-8,1973808E+001	0,0000000E+000	0,0000000E+000	0,0000000E+000	-8,0261908E+000	0,0000000E+000	0,0000000E+000	0,0000000E+000	8,0261908E+000	7,0918455E+000	8,1973808E+001	2,600227789075066E-004
5,0208866E+001	4,0461754E+001	4,5945654E+000	4,0721783E+001	-6,4783745E+000	6,174945086869557E+002	6,9997787E-001	1,9986430E+000	6,8991455E+002	8,7827511E+000	1,000000000000000E+000	11	1,0119883E-002	2,4851278E-004	0	9,811837877740837E-003	2,4400074E-002	2,7707086E-003	2,4556881E-002	6,4783745E+000	8,7827568E+003	7,7344758E+004	7,7841813E+004	-8,3521622E+001	0,0000000E+000	0,0000000E+000	0,0000000E+000	8,3521622E+001	0,0000000E+000	0,0000000E+000	0,0000000E+000	-8,3521622E+001	0,0000000E+000	0,0000000E+000	0,0000000E+000	-6,4783745E+000	0,0000000E+000	0,0000000E+000	0,0000000E+000	6,4783745E+000	8,8064375E+000	8,3521622E+001	2,530562820515659E-004
3,9859695E+001	4,0795849E+001	3,8291588E+000	4,0975159E+001	-5,3621569E+000	6,179600546823785E+002	6,9998765E-001	1,9915646E+000	1,0427562E+003	9,1064320E+000	1,000000000000000E+000	11	1,0118024E-002	2,4693069E-004	0	1,006598194959872E-002	2,4298232E-002	2,2806681E-003	2,4405031E-002	5,3621569E+000	9,1064365E+003	9,7019898E+004	9,7446336E+004	-8,4637840E+001	0,0000000E+000	0,0000000E+000	0,0000000E+000	8,4637840E+001	0,0000000E+000	0,0000000E+000	0,0000000E+000	-8,4637840E+001	0,0000000E+000	0,0000000E+000	0,0000000E+000	-5,3621569E+000	0,0000000E+000	0,0000000E+000	0,0000000E+000	5,3621569E+000	1,0653997E+001	8,4637840E+001	2,541440718578855E-004
3,1672298E+001	4,1486904E+001	3,1974008E+000	4,1609932E+001	-4,4070811E+000	6,184037560901343E+002	6,9998372E-001	1,9846332E+000	1,5716052E+003	9,2799072E+000	1,000000000000000E+000	11	1,0114954E-002	2,4308989E-004	0	1,030648449617306E-002	2,3961665E-002	1,8467286E-003	2,4032723E-002	4,4070811E+000	9,2799082E+003	1,2040861E+005	1,2076568E+005	-8,5592918E+001	0,0000000E+000	0,0000000E+000	0,0000000E+000	8,5592918E+001	0,0000000E+000	0,0000000E+000	0,0000000E+000	-8,5592918E+001	0,0000000E+000	0,0000000E+000	0,0000000E+000	-4,4070811E+000	0,0000000E+000	0,0000000E+000	0,0000000E+000	4,4070811E+000	1,2975197E+001	8,5592918E+001	2,405025465743380E-004
2,5136747E+001	4,1240246E+001	2,9122832E+000	4,1342949E+001	-4,0393791E+000	6,188672622721861E+002	6,9998449E-001	1,9842995E+000	2,1740896E+003	1,0788020E+001	1,000000000000000E+000	11	1,0116898E-002	2,4470675E-004	0	1,055810819640187E-002	2,4127835E-002	1,7038474E-003	2,4187921E-002	4,0393791E+000	1,0788030E+004	1,5276695E+005	1,5314739E+005	-8,5960617E+001	0,0000000E+000	0,0000000E+000	0,0000000E+000	8,5960617E+001	0,0000000E+000	0,0000000E+000	0,0000000E+000	-8,5960617E+001	0,0000000E+000	0,0000000E+000	0,0000000E+000	-4,0393791E+000	0,0000000E+000	0,0000000E+000	0,0000000E+000	4,0393791E+000	1,4160795E+001	8,5960617E+001	2,516237002288049E-004
1,9980818E+001	4,2161831E+001	2,6958921E+000	4,2247932E+001	-3,6585994E+000	6,193335074943170E+002	6,9998896E-001	1,9815426E+000	2,9546387E+003	1,2030910E+001	1,000000000000000E+000	11	1,0110378E-002	2,3931060E-004	0	1,080983954053998E-002	2,3621559E-002	1,5103987E-003	2,3669798E-002	3,6585994E+000	1,2030910E+004	1,8815483E+005	1,8853908E+005	-8,6341400E+001	0,0000000E+000	0,0000000E+000	0,0000000E+000	8,6341400E+001	0,0000000E+000	0,0000000E+000	0,0000000E+000	-8,6341400E+001	0,0000000E+000	0,0000000E+000	0,0000000E+000	-3,6585994E+000	0,0000000E+000	0,0000000E+000	0,0000000E+000	3,6585994E+000	1,5639287E+001	8,6341400E+001	2,517313441381171E-004
1,5857577E+001	4,1833099E+001	2,0407624E+000	4,1882847E+001	-2,7928712E+000	6,197755038086470E+002	6,9998014E-001	1,9805852E+000	4,9180264E+003	1,1676250E+001	1,000000000000000E+000	11	1,0113617E-002	2,4147397E-004	0	1,104921234553799E-002	2,3847762E-002	1,1633760E-003	2,3876123E-002	2,7928712E+000	1,1676242E+004	2,3934861E+005	2,3963325E+005	-8,7207130E+001	0,0000000E+000	0,0000000E+000	0,0000000E+000	8,7207130E+001	0,0000000E+000	0,0000000E+000	0,0000000E+000	-8,7207130E+001	0,0000000E+000	0,0000000E+000	0,0000000E+000	-2,7928712E+000	0,0000000E+000	0,0000000E+000	0,0000000E+000	2,7928712E+000	2,0498760E+001	8,7207130E+001	2,393728049980056E-004
1,2600809E+001	4,1564808E+001	1,7424418E+000	4,1601315E+001	-2,4004955E+000	6,203214456212445E+002	6,9998306E-001	1,9926119E+000	7,2487554E+003	1,2716450E+001	1,000000000000000E+000	11	1,0119389E-002	2,4324686E-004	0	1,134574634760595E-002	2,4016608E-002	1,0068022E-003	2,4037702E-002	2,4004955E+000	1,2716459E+004	3,0334256E+005	3,0360900E+005	-8,7599503E+001	0,0000000E+000	0,0000000E+000	0,0000000E+000	8,7599503E+001	0,0000000E+000	0,0000000E+000	0,0000000E+000	-8,7599503E+001	0,0000000E+000	0,0000000E+000	0,0000000E+000	-2,4004955E+000	0,0000000E+000	0,0000000E+000	0,0000000E+000	2,4004955E+000	2,3854345E+001	8,7599503E+001	2,965340020679615E-004
1,0016025E+001	4,1414852E+001	1,1865231E+000	4,1431847E+001	-1,6410580E+000	6,207849993765558E+002	6,9997025E-001	1,9863769E+000	1,3392097E+004	1,0983288E+001	1,000000000000000E+000	11	1,0105761E-002	2,4391287E-004	0	1,160020332760180E-002	2,4126124E-002	6,9120619E-004	2,4136024E-002	1,6410580E+000	1,0983301E+004	3,8336484E+005	3,8352216E+005	-8,8358940E+001	0,0000000E+000	0,0000000E+000	0,0000000E+000	8,8358940E+001	0,0000000E+000	0,0000000E+000	0,0000000E+000	-8,8358940E+001	0,0000000E+000	0,0000000E+000	0,0000000E+000	-1,6410580E+000	0,0000000E+000	0,0000000E+000	0,0000000E+000	1,6410580E+000	3,4904381E+001	8,8358940E+001	2,544569799958520E-004
7,9557004E+000	4,2409908E+001	1,4221425E+000	4,2433746E+001	-1,9205946E+000	6,213577453770995E+002	6,9997209E-001	1,9822602E+000	1,4066906E+004	1,5800181E+001	1,000000000000000E+000	11	1,0113610E-002	2,3833885E-004	0	1,190911822009243E-002	2,3552911E-002	7,8980584E-004	2,3566149E-002	1,9205946E+000	1,5800171E+004	4,7117941E+005	4,7144425E+005	-8,8079407E+001	0,0000000E+000	0,0000000E+000	0,0000000E+000	8,8079407E+001	0,0000000E+000	0,0000000E+000	0,0000000E+000	-8,8079407E+001	0,0000000E+000	0,0000000E+000	0,0000000E+000	-1,9205946E+000	0,0000000E+000	0,0000000E+000	0,0000000E+000	1,9205946E+000	2,9821138E+001	8,8079407E+001	3,089148924906304E-004
6,3105812E+000	4,2802330E+001	1,0767363E+000	4,2815872E+001	-1,4410299E+000	6,217367654751142E+002	6,9995517E-001	1,9642717E+000	2,3422941E+004	1,4813257E+001	1,000000000000000E+000	11	1,0116535E-002	2,3628002E-004	0	1,211604912377640E-002	2,3348438E-002	5,8735377E-004	2,3355825E-002	1,4410299E+000	1,4813283E+004	5,8885531E+005	5,8904163E+005	-8,8558968E+001	0,0000000E+000	0,0000000E+000	0,0000000E+000	8,8558968E+001	0,0000000E+000	0,0000000E+000	0,0000000E+000	-8,8558968E+001	0,0000000E+000	0,0000000E+000	0,0000000E+000	-1,4410299E+000	0,0000000E+000	0,0000000E+000	0,0000000E+000	1,4410299E+000	3,9751915E+001	8,8558968E+001	2,069309036839724E-004
5,0144420E+000	4,2227863E+001	1,1844355E+000	4,2244473E+001	-1,6066492E+000	6,222017814705468E+002	6,9997460E-001	1,9713665E+000	2,6796996E+004	2,1065372E+001	1,000000000000000E+000	11	1,0120469E-002	2,3956907E-004	0	1,236288954082584E-002	2,3662429E-002	6,6369964E-004	2,3671735E-002	1,6066492E+000	2,1065400E+004	7,5102925E+005	7,5132463E+005	-8,8393349E+001	0,0000000E+000	0,0000000E+000	0,0000000E+000	8,8393349E+001	0,0000000E+000	0,0000000E+000	0,0000000E+000	-8,8393349E+001	0,0000000E+000	0,0000000E+000	0,0000000E+000	-1,6066492E+000	0,0000000E+000	0,0000000E+000	0,0000000E+000	1,6066492E+000	3,5652313E+001	8,8393349E+001	2,468404170494366E-004
3,9859698E+000	4,3217422E+001	7,9891270E-001	4,3224808E+001	-1,0590430E+000	6,227732746977126E+002	6,9997919E-001	1,9669187E+000	4,9978914E+004	1,7073374E+001	1,000000000000000E+000	11	1,0115955E-002	2,3403123E-004	0	1,267080253202771E-002	2,3130910E-002	4,2759554E-004	2,3134863E-002	1,0590430E+000	1,7073385E+004	9,2358919E+005	9,2374700E+005	-8,8940956E+001	0,0000000E+000	0,0000000E+000	0,0000000E+000	8,8940956E+001	0,0000000E+000	0,0000000E+000	0,0000000E+000	-8,8940956E+001	0,0000000E+000	0,0000000E+000	0,0000000E+000	-1,0590430E+000	0,0000000E+000	0,0000000E+000	0,0000000E+000	1,0590430E+000	5,4095299E+001	8,8940956E+001	3,079129912018676E-004
3,1655185E+000	4,3726540E+001	6,5448356E-001	4,3731438E+001	-8,5751915E-001	6,234792924645808E+002	6,9997340E-001	1,9513152E+000	7,6820391E+004	1,7206261E+001	1,000000000000000E+000	11	1,0122990E-002	2,3148085E-004	0	1,305304964063958E-002	2,2864284E-002	3,4222461E-004	2,2866845E-002	8,5751915E-001	1,7206299E+004	1,1495633E+006	1,1496920E+006	-8,9142479E+001	0,0000000E+000	0,0000000E+000	0,0000000E+000	8,9142479E+001	0,0000000E+000	0,0000000E+000	0,0000000E+000	-8,9142479E+001	0,0000000E+000	0,0000000E+000	0,0000000E+000	-8,5751915E-001	0,0000000E+000	0,0000000E+000	0,0000000E+000	8,5751915E-001	6,6810753E+001	8,9142479E+001	3,822471086118735E-004
2,5136747E+000	4,3104939E+001	9,0601659E-001	4,3114460E+001	-1,2041146E+000	6,243552517861826E+002	6,9998288E-001	1,9568924E+000	6,9883539E+004	3,0860382E+001	1,000000000000000E+000	11	1,0118668E-002	2,3469314E-004	0	1,352439128198971E-002	2,3188952E-002	4,8740531E-004	2,3194075E-002	1,2041146E+000	3,0860441E+004	1,4682236E+006	1,4685479E+006	-8,8795883E+001	0,0000000E+000	0,0000000E+000	0,0000000E+000	8,8795883E+001	0,0000000E+000	0,0000000E+000	0,0000000E+000	-8,8795883E+001	0,0000000E+000	0,0000000E+000	0,0000000E+000	-1,2041146E+000	0,0000000E+000	0,0000000E+000	0,0000000E+000	1,2041146E+000	4,7576324E+001	8,8795883E+001	4,713416413501311E-004
1,9970603E+000	4,2779686E+001	-2,2899500E-001	4,2780300E+001	3,0669513E-001	6,254482799180987E+002	6,9998902E-001	1,9554142E+000	-3,4801900E+005	-9,9716558E+000	1,000000000000000E+000	11	1,0118069E-002	2,3651234E-004	0	1,410855434157208E-002	2,3374910E-002	-1,2512335E-004	2,3375245E-002	-3,0669513E-001	-9,9716211E+003	1,8628544E+006	1,8628811E+006	-9,0306694E+001	0,0000000E+000	0,0000000E+000	0,0000000E+000	9,0306694E+001	0,0000000E+000	0,0000000E+000	0,0000000E+000	-9,0306694E+001	0,0000000E+000	0,0000000E+000	0,0000000E+000	3,0669513E-001	0,0000000E+000	0,0000000E+000	0,0000000E+000	-3,0669513E-001	1,8681494E+002	8,9693306E+001	5,841630595823655E-004
1,5846856E+000	4,3660828E+001	3,0876547E-001	4,3661919E+001	-4,0518391E-001	6,268126186228910E+002	6,9999343E-001	1,9397749E+000	3,2527322E+005	1,6266726E+001	1,000000000000000E+000	11	1,0118724E-002	2,3175169E-004	0	1,483972383042986E-002	2,2902682E-002	1,6196573E-004	2,2903254E-002	4,0518391E-001	1,6266646E+004	2,3001883E+006	2,3002458E+006	-8,9594818E+001	0,0000000E+000	0,0000000E+000	0,0000000E+000	8,9594818E+001	0,0000000E+000	0,0000000E+000	0,0000000E+000	-8,9594818E+001	0,0000000E+000	0,0000000E+000	0,0000000E+000	-4,0518391E-001	0,0000000E+000	0,0000000E+000	0,0000000E+000	4,0518391E-001	1,4140450E+002	8,9594818E+001	7,311694888577844E-004
1,2596742E+000	4,4222263E+001	2,2825167E-002	4,4222271E+001	-2,9573012E-002	6,285196150506235E+002	6,9999963E-001	1,9388461E+000	5,5353865E+006	1,4746664E+000	1,000000000000000E+000	11	1,0116193E-002	2,2875787E-004	0	1,575895982811065E-002	2,2613037E-002	1,1671640E-005	2,2613041E-002	2,9573012E-002	1,4745927E+003	2,8570695E+006	2,8570700E+006	-8,9970428E+001	0,0000000E+000	0,0000000E+000	0,0000000E+000	8,9970428E+001	0,0000000E+000	0,0000000E+000	0,0000000E+000	-8,9970428E+001	0,0000000E+000	0,0000000E+000	0,0000000E+000	-2,9573012E-002	0,0000000E+000	0,0000000E+000	0,0000000E+000	2,9573012E-002	1,9374344E+003	8,9970428E+001	9,192359976807826E-004
1,0000639E+000	4,4015720E+001	-1,3981384E-001	4,4015942E+001	1,8199672E-001	6,306577353121684E+002	6,9999325E-001	1,8864661E+000	-1,1382619E+006	-1,1484776E+001	1,000000000000000E+000	11	1,0117438E-002	2,2985849E-004	0	1,689552031522762E-002	2,2718925E-002	-7,2165589E-005	2,2719041E-002	-1,8199672E-001	-1,1484934E+004	3,6155983E+006	3,6156165E+006	-9,0181999E+001	0,0000000E+000	0,0000000E+000	0,0000000E+000	9,0181999E+001	0,0000000E+000	0,0000000E+000	0,0000000E+000	-9,0181999E+001	0,0000000E+000	0,0000000E+000	0,0000000E+000	1,8199672E-001	0,0000000E+000	0,0000000E+000	0,0000000E+000	-1,8199672E-001	3,1481662E+002	8,9818001E+001	1,136560487116970E-003
7,9882401E-001	5,1692272E+001	-3,0343786E-001	5,1693161E+001	3,3632705E-001	8,411245826954982E+002	6,9995147E-001	1,6687127E+000	-6,5659750E+005	-2,2624166E+001	1,000000000000000E+000	11	1,0342576E-002	2,0007629E-004	0	1,174437270673174E-001	1,9344585E-002	-1,1355430E-004	1,9344918E-002	-3,3632705E-001	-2,2624137E+004	3,8541485E+006	3,8542150E+006	-9,0336327E+001	0,0000000E+000	0,0000000E+000	0,0000000E+000	9,0336327E+001	0,0000000E+000	0,0000000E+000	0,0000000E+000	-9,0336327E+001	0,0000000E+000	0,0000000E+000	0,0000000E+000	3,3632705E-001	0,0000000E+000	0,0000000E+000	0,0000000E+000	-3,3632705E-001	1,7035538E+002	8,9663673E+001	1,005482067520898E-001
6,2907392E-001	5,2882137E+001	7,7720404E-001	5,2887848E+001	-8,4201038E-001	8,411249690955010E+002	6,9995147E-001	1,6687127E+000	3,2552428E+005	7,0297798E+001	1,000000000000000E+000	11	1,0344862E-002	1,9559998E-004	0	1,174437270673174E-001	1,8905893E-002	2,7785823E-004	1,8907934E-002	8,4201038E-001	7,0297813E+004	4,7831685E+006	4,7836850E+006	-8,9157990E+001	0,0000000E+000	0,0000000E+000	0,0000000E+000	8,9157990E+001	0,0000000E+000	0,0000000E+000	0,0000000E+000	-8,9157990E+001	0,0000000E+000	0,0000000E+000	0,0000000E+000	-8,4201038E-001	0,0000000E+000	0,0000000E+000	0,0000000E+000	8,4201038E-001	6,8041512E+001	8,9157990E+001	0,000000000000000E+000
4,9926502E-001	5,3400452E+001	-4,3437213E-001	5,3402218E+001	4,6604741E-001	8,411253554955038E+002	6,9995147E-001	1,6687127E+000	-7,3388338E+005	-4,8554821E+001	1,000000000000000E+000	11	1,0345977E-002	1,9373684E-004	0	1,174437270673174E-001	1,8725194E-002	-1,5231525E-004	1,8725814E-002	-4,6604741E-001	-4,8555004E+004	5,9691885E+006	5,9693860E+006	-9,0466049E+001	0,0000000E+000	0,0000000E+000	0,0000000E+000	9,0466049E+001	0,0000000E+000	0,0000000E+000	0,0000000E+000	-9,0466049E+001	0,0000000E+000	0,0000000E+000	0,0000000E+000	4,6604741E-001	0,0000000E+000	0,0000000E+000	0,0000000E+000	-4,6604741E-001	1,2293710E+002	8,9533951E+001	0,000000000000000E+000
3,9941201E-001	5,3294964E+001	-1,7466430E-001	5,3295250E+001	1,8777557E-001	8,411257418955065E+002	6,9995147E-001	1,6687127E+000	-2,2813655E+006	-2,4503389E+001	1,000000000000000E+000	11	1,0347156E-002	1,9414781E-004	0	1,174437270673174E-001	1,8763298E-002	-6,1493214E-005	1,8763399E-002	-1,8777557E-001	-2,4503273E+004	7,4766700E+006	7,4767100E+006	-9,0187775E+001	0,0000000E+000	0,0000000E+000	0,0000000E+000	9,0187775E+001	0,0000000E+000	0,0000000E+000	0,0000000E+000	-9,0187775E+001	0,0000000E+000	0,0000000E+000	0,0000000E+000	1,8777557E-001	0,0000000E+000	0,0000000E+000	0,0000000E+000	-1,8777557E-001	3,0512796E+002	8,9812225E+001	0,000000000000000E+000
3,1952962E-001	5,1832718E+001	1,5370388E+000	5,1855503E+001	-1,6985416E+000	8,411261282955093E+002	6,9995147E-001	1,6687127E+000	3,2405906E+005	2,8471094E+002	1,000000000000000E+000	11	1,0348069E-002	1,9955586E-004	0	1,174437270673174E-001	1,9275883E-002	5,7160377E-004	1,9284356E-002	1,6985416E+000	2,8471056E+005	9,6011500E+006	9,6053700E+006	-8,8301460E+001	0,0000000E+000	0,0000000E+000	0,0000000E+000	8,8301460E+001	0,0000000E+000	0,0000000E+000	0,0000000E+000	-8,8301460E+001	0,0000000E+000	0,0000000E+000	0,0000000E+000	-1,6985416E+000	0,0000000E+000	0,0000000E+000	0,0000000E+000	1,6985416E+000	3,3722454E+001	8,8301460E+001	0,000000000000000E+000
2,4963251E-001	5,0951859E+001	7,2301127E-002	5,0951908E+001	-8,1303157E-002	8,411265146955120E+002	6,9995147E-001	1,6687127E+000	8,8180780E+006	1,7755919E+001	1,000000000000000E+000	11	1,0348190E-002	2,0309720E-004	0	1,174437270673174E-001	1,9626331E-002	2,7849936E-005	1,9626351E-002	8,1303157E-002	1,7756641E+004	1,2512904E+007	1,2512917E+007	-8,9918694E+001	0,0000000E+000	0,0000000E+000	0,0000000E+000	8,9918694E+001	0,0000000E+000	0,0000000E+000	0,0000000E+000	-8,9918694E+001	0,0000000E+000	0,0000000E+000	0,0000000E+000	-8,1303157E-002	0,0000000E+000	0,0000000E+000	0,0000000E+000	8,1303157E-002	7,0471735E+002	8,9918694E+001	0,000000000000000E+000
1,9970600E-001	5,3951618E+001	3,5522072E+000	5,4068432E+001	-3,7669518E+000	8,411269010955148E+002	6,9995147E-001	1,6687127E+000	2,2435241E+005	9,6836652E+002	1,000000000000000E+000	11	1,0348015E-002	1,9138736E-004	0	1,174437270673174E-001	1,8455124E-002	1,2150964E-003	1,8495081E-002	3,7669518E+000	9,6836663E+005	1,4707740E+007	1,4739584E+007	-8,6233047E+001	0,0000000E+000	0,0000000E+000	0,0000000E+000	8,6233047E+001	0,0000000E+000	0,0000000E+000	0,0000000E+000	-8,6233047E+001	0,0000000E+000	0,0000000E+000	0,0000000E+000	-3,7669518E+000	0,0000000E+000	0,0000000E+000	0,0000000E+000	3,7669518E+000	1,5188195E+001	8,6233047E+001	0,000000000000000E+000
1,5976481E-001	4,9925037E+001	-1,9726716E+000	4,9963993E+001	2,2627325E+000	8,411272874955175E+002	6,9995147E-001	1,6687127E+000	-5,0499172E+005	-7,8718994E+002	1,000000000000000E+000	11	1,0347875E-002	2,0710664E-004	0	1,174437270673174E-001	1,9998807E-002	-7,9020637E-004	2,0014413E-002	-2,2627325E+000	-7,8719019E+005	1,9922464E+007	1,9938010E+007	-9,2262733E+001	0,0000000E+000	0,0000000E+000	0,0000000E+000	9,2262733E+001	0,0000000E+000	0,0000000E+000	0,0000000E+000	-9,2262733E+001	0,0000000E+000	0,0000000E+000	0,0000000E+000	2,2627325E+000	0,0000000E+000	0,0000000E+000	0,0000000E+000	-2,2627325E+000	2,5308336E+001	8,7737267E+001	0,000000000000000E+000
1,2980890E-001	5,1179119E+001	-1,4132924E+000	5,1198627E+001	1,5817997E+000	8,411276738955203E+002	6,9995147E-001	1,6687127E+000	-8,6752825E+005	-6,6104504E+002	1,000000000000000E+000	11	1,0348836E-002	2,0213112E-004	0	1,174437270673174E-001	1,9524330E-002	-5,3915713E-004	1,9531773E-002	-1,5817997E+000	-6,6104613E+005	2,3938218E+007	2,3947344E+007	-9,1581802E+001	0,0000000E+000	0,0000000E+000	0,0000000E+000	9,1581802E+001	0,0000000E+000	0,0000000E+000	0,0000000E+000	-9,1581802E+001	0,0000000E+000	0,0000000E+000	0,0000000E+000	1,5817997E+000	0,0000000E+000	0,0000000E+000	0,0000000E+000	-1,5817997E+000	3,6212688E+001	8,8418198E+001	0,000000000000000E+000
9,9853002E-002	5,5192852E+001	1,7976613E+000	5,5222118E+001	-1,8654954E+000	8,411280602955230E+002	6,9995147E-001	1,6687127E+000	8,8664775E+005	9,3959509E+002	1,000000000000000E+000	11	1,0350099E-002	1,8742669E-004	0	1,174437270673174E-001	1,8099088E-002	5,8949721E-004	1,8108686E-002	1,8654954E+000	9,3959431E+005	2,8848000E+007	2,8863298E+007	-8,8134506E+001	0,0000000E+000	0,0000000E+000	0,0000000E+000	8,8134506E+001	0,0000000E+000	0,0000000E+000	0,0000000E+000	-8,8134506E+001	0,0000000E+000	0,0000000E+000	0,0000000E+000	-1,8654954E+000	0,0000000E+000	0,0000000E+000	0,0000000E+000	1,8654954E+000	3,0702587E+001	8,8134506E+001	0,000000000000000E+000
7,9882406E-002	4,9620556E+001	3,6010487E+000	4,9751053E+001	-4,1507759E+000	8,411284466955258E+002	6,9995147E-001	1,6687127E+000	5,5327369E+005	2,8986345E+003	1,000000000000000E+000	11	1,0350727E-002	2,0805042E-004	0	1,174437270673174E-001	2,0047355E-002	1,4548708E-003	2,0100078E-002	4,1507759E+000	2,8986318E+006	3,9941660E+007	4,0046700E+007	-8,5849228E+001	0,0000000E+000	0,0000000E+000	0,0000000E+000	8,5849228E+001	0,0000000E+000	0,0000000E+000	0,0000000E+000	-8,5849228E+001	0,0000000E+000	0,0000000E+000	0,0000000E+000	-4,1507759E+000	0,0000000E+000	0,0000000E+000	0,0000000E+000	4,1507759E+000	1,3779473E+001	8,5849228E+001	0,000000000000000E+000
5,9911802E-002	5,3082207E+001	2,0737598E+000	5,3122700E+001	-2,2372336E+000	8,411288330955285E+002	6,9995147E-001	1,6687127E+000	1,2810005E+006	1,9521174E+003	1,000000000000000E+000	11	1,0349140E-002	1,9481577E-004	0	1,174437270673174E-001	1,8809997E-002	7,3484919E-004	1,8824345E-002	2,2372336E+000	1,9521198E+006	4,9968520E+007	5,0006636E+007	-8,7762764E+001	0,0000000E+000	0,0000000E+000	0,0000000E+000	8,7762764E+001	0,0000000E+000	0,0000000E+000	0,0000000E+000	-8,7762764E+001	0,0000000E+000	0,0000000E+000	0,0000000E+000	-2,2372336E+000	0,0000000E+000	0,0000000E+000	0,0000000E+000	2,2372336E+000	2,5597086E+001	8,7762764E+001	0,000000000000000E+000
4,9926501E-002	5,0189159E+001	6,1765302E-002	5,0189198E+001	-7,0511028E-002	8,411292194955313E+002	6,9995147E-001	1,6687127E+000	5,1611260E+007	7,8165131E+001	1,000000000000000E+000	11	1,0349971E-002	2,0621911E-004	0	1,174437270673174E-001	1,9924592E-002	2,4520203E-005	1,9924607E-002	7,0511028E-002	7,8164945E+004	6,3515308E+007	6,3515356E+007	-8,9929489E+001	0,0000000E+000	0,0000000E+000	0,0000000E+000	8,9929489E+001	0,0000000E+000	0,0000000E+000	0,0000000E+000	-8,9929489E+001	0,0000000E+000	0,0000000E+000	0,0000000E+000	-7,0511028E-002	0,0000000E+000	0,0000000E+000	0,0000000E+000	7,0511028E-002	8,1257855E+002	8,9929489E+001	0,000000000000000E+000
3,9941203E-002	5,3621887E+001	-2,8237050E+000	5,3696182E+001	3,0143862E+000	8,411296058955340E+002	6,9995147E-001	1,6687127E+000	-1,4111711E+006	-3,9023975E+003	1,000000000000000E+000	11	1,0348187E-002	1,9271737E-004	0	1,174437270673174E-001	1,8597530E-002	-9,7933772E-004	1,8623298E-002	-3,0143862E+000	-3,9024005E+006	7,4106144E+007	7,4208824E+007	-9,3014389E+001	0,0000000E+000	0,0000000E+000	0,0000000E+000	9,3014389E+001	0,0000000E+000	0,0000000E+000	0,0000000E+000	-9,3014389E+001	0,0000000E+000	0,0000000E+000	0,0000000E+000	3,0143862E+000	0,0000000E+000	0,0000000E+000	0,0000000E+000	-3,0143862E+000	1,8989904E+001	8,6985611E+001	0,000000000000000E+000
2,9955901E-002	4,9982414E+001	5,1088009E+000	5,0242825E+001	-5,8360476E+000	8,411299922955368E+002	6,9995147E-001	1,6687127E+000	1,0399652E+006	1,0752479E+004	1,000000000000000E+000	11	1,0349735E-002	2,0599428E-004	0	1,174438189199161E-001	1,9800179E-002	2,0238154E-003	1,9903339E-002	5,8360476E+000	1,0752475E+007	1,0519786E+008	1,0574594E+008	-8,4163956E+001	0,0000000E+000	0,0000000E+000	0,0000000E+000	8,4163956E+001	0,0000000E+000	0,0000000E+000	0,0000000E+000	-8,4163956E+001	0,0000000E+000	0,0000000E+000	0,0000000E+000	-5,8360476E+000	0,0000000E+000	0,0000000E+000	0,0000000E+000	5,8360476E+000	9,7835903E+000	8,4163956E+001	9,185259872146467E-008
1,9970601E-002	5,5815918E+001	4,6429133E+000	5,6008690E+001	-4,7550650E+000	8,411303786955395E+002	6,9995147E-001	1,6687127E+000	1,7164788E+006	1,1795294E+004	1,000000000000000E+000	11	1,0347150E-002	1,8474188E-004	0	1,174438189199161E-001	1,7792920E-002	1,4800614E-003	1,7854372E-002	4,7550650E+000	1,1795296E+007	1,4180000E+008	1,4228974E+008	-8,5244934E+001	0,0000000E+000	0,0000000E+000	0,0000000E+000	8,5244934E+001	0,0000000E+000	0,0000000E+000	0,0000000E+000	-8,5244934E+001	0,0000000E+000	0,0000000E+000	0,0000000E+000	-4,7550650E+000	0,0000000E+000	0,0000000E+000	0,0000000E+000	4,7550650E+000	1,2021745E+001	8,5244934E+001	0,000000000000000E+000
9,9853007E-003	5,1582802E+001	2,8776453E+000	5,1663006E+001	-3,1930451E+000	8,411307650955423E+002	6,9995147E-001	1,6687127E+000	5,5388775E+006	1,7184500E+004	1,000000000000000E+000	11	1,0349482E-002	2,0032676E-004	0	1,174438189199161E-001	1,9326160E-002	1,0781469E-003	1,9356210E-002	3,1930451E+000	1,7184508E+007	3,0803818E+008	3,0851715E+008	-8,6806953E+001	0,0000000E+000	0,0000000E+000	0,0000000E+000	8,6806953E+001	0,0000000E+000	0,0000000E+000	0,0000000E+000	-8,6806953E+001	0,0000000E+000	0,0000000E+000	0,0000000E+000	-3,1930451E+000	0,0000000E+000	0,0000000E+000	0,0000000E+000	3,1930451E+000	1,7925352E+001	8,6806953E+001	0,000000000000000E+000