File: fig_4_nife_ceo2/EIS_1_nyquist/Ni10Fe90_OCP+EIS_1_02_PEIS_C01.txt
freq/Hz	Re(Z)/Ohm	-Im(Z)/Ohm	|Z|/Ohm	Phase(Z)/deg	time/s	<Ewe>/V	<I>/mA	Cs/�F	Cp/�F	cycle number	I Range	|Ewe|/V	|I|/A	Ns	(Q-Qo)/mA.h	Re(Y)/Ohm-1	Im(Y)/Ohm-1	|Y|/Ohm-1	Phase(Y)/deg	Re(C)/nF	Im(C)/nF	|C|/nF	Phase(C)/deg	Re(M)	Im(M)	|M|	Phase(M)/deg	Re(Permittivity)	Im(Permittivity)	|Permittivity|	Phase(Permittivity)/deg	Re(Resistivity)/Ohm.cm	Im(Resistivity)/Ohm.cm	|Resistivity|/Ohm.cm	Phase(Resistivity)/deg	Re(Conductivity)/mS/cm	Im(Conductivity)/mS/cm	|Conductivity|/mS/cm
1,9999814E+005	7,8679829E+000	-3,6408779E-001	7,8764024E+000	2,6494493E+000	6,012340715412720E+002	6,9978559E-001	2,2382264E+000	-2,1856875E+000	-4,6702968E-003	1,000000000000000E+000	10	9,0945633E-003	1,1546595E-003	0	6,246277288909121E-004	1,2682579E-001	-5,8688135E-003	1,2696151E-001	-2,6494493E+000	-4,6703019E+000	1,0092570E+002	1,0103371E+002	-9,2649452E+001	0,0000000E+000	0,0000000E+000	0,0000000E+000	9,2649452E+001	0,0000000E+000	0,0000000E+000	0,0000000E+000	-9,2649452E+001	0,0000000E+000	0,0000000E+000	0,0000000E+000	2,6494493E+000	0,0000000E+000	0,0000000E+000	0,0000000E+000	-2,6494493E+000	2,1610126E+001	8,7350548E+001	6,246277288909121E-004
1,5885727E+005	7,5314593E+000	3,6809001E-002	7,5315495E+000	-2,8002325E-001	6,016570573747013E+002	6,9980669E-001	2,1820071E+000	2,7218176E+001	6,5012730E-004	1,000000000000000E+000	10	1,0455935E-002	1,3882847E-003	0	8,796398353864335E-004	1,3277322E-001	6,4891134E-004	1,3277480E-001	2,8002325E-001	6,5012372E-001	1,3302202E+002	1,3302361E+002	-8,9719978E+001	0,0000000E+000	0,0000000E+000	0,0000000E+000	8,9719978E+001	0,0000000E+000	0,0000000E+000	0,0000000E+000	-8,9719978E+001	0,0000000E+000	0,0000000E+000	0,0000000E+000	-2,8002325E-001	0,0000000E+000	0,0000000E+000	0,0000000E+000	2,8002325E-001	2,0460918E+002	8,9719978E+001	2,550121064955214E-004
1,2618765E+005	7,4198666E+000	2,9987398E-001	7,4259238E+000	-2,3143499E+000	6,020790575280989E+002	6,9983244E-001	2,1418946E+000	4,2059541E+000	6,8586888E-003	1,000000000000000E+000	10	1,0657710E-002	1,4352032E-003	0	1,129333958049078E-003	1,3455354E-001	5,4379823E-003	1,3466337E-001	2,3143499E+000	6,8586779E+000	1,6970648E+002	1,6984502E+002	-8,7685654E+001	0,0000000E+000	0,0000000E+000	0,0000000E+000	8,7685654E+001	0,0000000E+000	0,0000000E+000	0,0000000E+000	-8,7685654E+001	0,0000000E+000	0,0000000E+000	0,0000000E+000	-2,3143499E+000	0,0000000E+000	0,0000000E+000	0,0000000E+000	2,3143499E+000	2,4743282E+001	8,7685654E+001	2,496941226626449E-004
1,0022640E+005	7,3843784E+000	4,7589153E-001	7,3996973E+000	-3,6873682E+000	6,025010816281283E+002	6,9984394E-001	2,1145642E+000	3,3367989E+000	1,3801238E-002	1,000000000000000E+000	10	1,0549325E-002	1,4256429E-003	0	1,371752196785063E-003	1,3486089E-001	8,6912066E-003	1,3514066E-001	3,6873682E+000	1,3801249E+001	2,1415295E+002	2,1459721E+002	-8,6312630E+001	0,0000000E+000	0,0000000E+000	0,0000000E+000	8,6312630E+001	0,0000000E+000	0,0000000E+000	0,0000000E+000	-8,6312630E+001	0,0000000E+000	0,0000000E+000	0,0000000E+000	-3,6873682E+000	0,0000000E+000	0,0000000E+000	0,0000000E+000	3,6873682E+000	1,5516936E+001	8,6312630E+001	2,424182387359842E-004
7,9609563E+004	7,4067044E+000	6,3234246E-001	7,4336481E+000	-4,8797565E+000	6,029230577014823E+002	6,9985920E-001	2,0828309E+000	3,1615682E+000	2,2877220E-002	1,000000000000000E+000	10	1,0485611E-002	1,4105606E-003	0	1,612427379031743E-003	1,3403586E-001	1,1443223E-002	1,3452345E-001	4,8797565E+000	2,2877205E+001	2,6796365E+002	2,6893845E+002	-8,5120247E+001	0,0000000E+000	0,0000000E+000	0,0000000E+000	8,5120247E+001	0,0000000E+000	0,0000000E+000	0,0000000E+000	-8,5120247E+001	0,0000000E+000	0,0000000E+000	0,0000000E+000	-4,8797565E+000	0,0000000E+000	0,0000000E+000	0,0000000E+000	4,8797565E+000	1,1713122E+001	8,5120247E+001	2,406751822466807E-004
6,3233004E+004	7,4248443E+000	7,9148453E-001	7,4669108E+000	-6,0847220E+000	6,033450764948939E+002	6,9985956E-001	2,0652683E+000	3,1800494E+000	3,5730314E-002	1,000000000000000E+000	10	1,0343838E-002	1,3852901E-003	0	1,851942724485959E-003	1,3316970E-001	1,4195820E-002	1,3392419E-001	6,0847220E+000	3,5730324E+001	3,3518277E+002	3,3708182E+002	-8,3915276E+001	0,0000000E+000	0,0000000E+000	0,0000000E+000	8,3915276E+001	0,0000000E+000	0,0000000E+000	0,0000000E+000	-8,3915276E+001	0,0000000E+000	0,0000000E+000	0,0000000E+000	-6,0847220E+000	0,0000000E+000	0,0000000E+000	0,0000000E+000	6,0847220E+000	9,3809090E+000	8,3915276E+001	2,395153454542158E-004
5,0224539E+004	7,4774551E+000	9,6834648E-001	7,5398960E+000	-7,3788590E+000	6,037670688082435E+002	6,9986916E-001	2,0497515E+000	3,2724528E+000	5,3976439E-002	1,000000000000000E+000	10	1,0358777E-002	1,3738620E-003	0	2,087532533461383E-003	1,3152950E-001	1,7033350E-002	1,3262783E-001	7,3788590E+000	5,3976444E+001	4,1679956E+002	4,2028006E+002	-8,2621140E+001	0,0000000E+000	0,0000000E+000	0,0000000E+000	8,2621140E+001	0,0000000E+000	0,0000000E+000	0,0000000E+000	-8,2621140E+001	0,0000000E+000	0,0000000E+000	0,0000000E+000	-7,3788590E+000	0,0000000E+000	0,0000000E+000	0,0000000E+000	7,3788590E+000	7,7218800E+000	8,2621140E+001	2,355898089754240E-004
3,9897566E+004	7,5589437E+000	1,1810532E+000	7,6506548E+000	-8,8804245E+000	6,041890814415965E+002	6,9986945E-001	2,0284042E+000	3,3775694E+000	8,0490746E-002	1,000000000000000E+000	10	1,0285081E-002	1,3443400E-003	0	2,320281561749521E-003	1,2914093E-001	2,0177729E-002	1,3070777E-001	8,8804245E+000	8,0490753E+001	5,1515466E+002	5,2140491E+002	-8,1119576E+001	0,0000000E+000	0,0000000E+000	0,0000000E+000	8,1119576E+001	0,0000000E+000	0,0000000E+000	0,0000000E+000	-8,1119576E+001	0,0000000E+000	0,0000000E+000	0,0000000E+000	-8,8804245E+000	0,0000000E+000	0,0000000E+000	0,0000000E+000	8,8804245E+000	6,4001722E+000	8,1119576E+001	2,327490282881383E-004
3,1686090E+004	7,6527004E+000	1,4298235E+000	7,7851281E+000	-1,0583069E+001	6,046120635950210E+002	6,9986886E-001	2,0136602E+000	3,5129263E+000	1,1849564E-001	1,000000000000000E+000	10	1,0220135E-002	1,3127767E-003	0	2,552360719521918E-003	1,2626506E-001	2,3591246E-002	1,2845004E-001	1,0583069E+001	1,1849564E+002	6,3421228E+002	6,4518713E+002	-7,9416931E+001	0,0000000E+000	0,0000000E+000	0,0000000E+000	7,9416931E+001	0,0000000E+000	0,0000000E+000	0,0000000E+000	-7,9416931E+001	0,0000000E+000	0,0000000E+000	0,0000000E+000	-1,0583069E+001	0,0000000E+000	0,0000000E+000	0,0000000E+000	1,0583069E+001	5,3521991E+000	7,9416931E+001	2,320791577723968E-004
2,5172580E+004	7,7846899E+000	1,7383578E+000	7,9764204E+000	-1,2587897E+001	6,050340719884116E+002	6,9987184E-001	1,9982702E+000	3,6370833E+000	1,7274898E-001	1,000000000000000E+000	10	1,0158681E-002	1,2735890E-003	0	2,780940280969682E-003	1,2235599E-001	2,7322669E-002	1,2536952E-001	1,2587897E+001	1,7274899E+002	7,7360205E+002	7,9265527E+002	-7,7412102E+001	0,0000000E+000	0,0000000E+000	0,0000000E+000	7,7412102E+001	0,0000000E+000	0,0000000E+000	0,0000000E+000	-7,7412102E+001	0,0000000E+000	0,0000000E+000	0,0000000E+000	-1,2587897E+001	0,0000000E+000	0,0000000E+000	0,0000000E+000	1,2587897E+001	4,4781861E+000	7,7412102E+001	2,285795614477633E-004
1,9995176E+004	7,9544129E+000	2,0950036E+000	8,2256746E+000	-1,4755264E+001	6,054560692351515E+002	6,9986761E-001	1,9776360E+000	3,7993569E+000	2,4645442E-001	1,000000000000000E+000	10	1,0148656E-002	1,2337778E-003	0	3,009286585333337E-003	1,1756148E-001	3,0962907E-002	1,2157057E-001	1,4755264E+001	2,4645444E+002	9,3575031E+002	9,6766132E+002	-7,5244736E+001	0,0000000E+000	0,0000000E+000	0,0000000E+000	7,5244736E+001	0,0000000E+000	0,0000000E+000	0,0000000E+000	-7,5244736E+001	0,0000000E+000	0,0000000E+000	0,0000000E+000	-1,4755264E+001	0,0000000E+000	0,0000000E+000	0,0000000E+000	1,4755264E+001	3,7968493E+000	7,5244736E+001	2,283463043636553E-004
1,5884798E+004	8,1717625E+000	2,5198505E+000	8,5514526E+000	-1,7137709E+001	6,057430806887423E+002	6,9988012E-001	1,9722222E+000	3,9761586E+000	3,4524980E-001	1,000000000000000E+000	10	1,0974768E-002	1,2833806E-003	0	3,161226538775004E-003	1,1174701E-001	3,4458391E-002	1,1693919E-001	1,7137709E+001	3,4524985E+002	1,1196295E+003	1,1716517E+003	-7,2862289E+001	0,0000000E+000	0,0000000E+000	0,0000000E+000	7,2862289E+001	0,0000000E+000	0,0000000E+000	0,0000000E+000	-7,2862289E+001	0,0000000E+000	0,0000000E+000	0,0000000E+000	-1,7137709E+001	0,0000000E+000	0,0000000E+000	0,0000000E+000	1,7137709E+001	3,2429552E+000	7,2862289E+001	1,519399534416670E-004
1,2618766E+004	8,4409971E+000	3,0180256E+000	8,9643135E+000	-1,9674191E+001	6,061650636955019E+002	6,9988567E-001	1,9595892E+000	4,1790767E+000	4,7368774E-001	1,000000000000000E+000	10	1,0113565E-002	1,1282030E-003	0	3,389229248291671E-003	1,0504121E-001	3,7556823E-002	1,1155344E-001	1,9674191E+001	4,7368777E+002	1,3248385E+003	1,4069745E+003	-7,0325806E+001	0,0000000E+000	0,0000000E+000	0,0000000E+000	7,0325806E+001	0,0000000E+000	0,0000000E+000	0,0000000E+000	-7,0325806E+001	0,0000000E+000	0,0000000E+000	0,0000000E+000	-1,9674191E+001	0,0000000E+000	0,0000000E+000	0,0000000E+000	1,9674191E+001	2,7968607E+000	7,0325806E+001	2,280027095166669E-004
1,0020785E+004	8,8018618E+000	3,5743752E+000	9,4999437E+000	-2,2101730E+001	6,064510759757104E+002	6,9988620E-001	1,9573570E+000	4,4434290E+000	6,2903738E-001	1,000000000000000E+000	10	1,0362106E-002	1,0907545E-003	0	3,540730584646096E-003	9,7528711E-002	3,9605737E-002	1,0526378E-001	2,2101730E+001	6,2903735E+002	1,5489979E+003	1,6718501E+003	-6,7898270E+001	0,0000000E+000	0,0000000E+000	0,0000000E+000	6,7898270E+001	0,0000000E+000	0,0000000E+000	0,0000000E+000	-6,7898270E+001	0,0000000E+000	0,0000000E+000	0,0000000E+000	-2,2101730E+001	0,0000000E+000	0,0000000E+000	0,0000000E+000	2,2101730E+001	2,4624896E+000	6,7898270E+001	1,515013363544257E-004
7,9597607E+003	9,2647095E+000	4,2165260E+000	1,0179093E+001	-2,4471085E+001	6,067783341513132E+002	6,9989967E-001	1,9465206E+000	4,7420411E+000	8,1368572E-001	1,000000000000000E+000	10	1,0457744E-002	1,0273748E-003	0	3,712060583589845E-003	8,9415669E-002	4,0694583E-002	9,8240577E-002	2,4471085E+001	8,1368579E+002	1,7878611E+003	1,9643146E+003	-6,5528915E+001	0,0000000E+000	0,0000000E+000	0,0000000E+000	6,5528915E+001	0,0000000E+000	0,0000000E+000	0,0000000E+000	-6,5528915E+001	0,0000000E+000	0,0000000E+000	0,0000000E+000	-2,4471085E+001	0,0000000E+000	0,0000000E+000	0,0000000E+000	2,4471085E+001	2,1972375E+000	6,5528915E+001	1,713299989437480E-004
6,3238188E+003	9,8515272E+000	4,9211617E+000	1,1012285E+001	-2,6543634E+001	6,071708914232877E+002	6,9990385E-001	1,9449717E+000	5,1141453E+000	1,0213002E+000	1,000000000000000E+000	10	1,0455715E-002	9,4945921E-004	0	3,919021802323017E-003	8,1236027E-002	4,0580064E-002	9,0807676E-002	2,6543634E+001	1,0213001E+003	2,0445105E+003	2,2854053E+003	-6,3456367E+001	0,0000000E+000	0,0000000E+000	0,0000000E+000	6,3456367E+001	0,0000000E+000	0,0000000E+000	0,0000000E+000	-6,3456367E+001	0,0000000E+000	0,0000000E+000	0,0000000E+000	-2,6543634E+001	0,0000000E+000	0,0000000E+000	0,0000000E+000	2,6543634E+001	2,0018702E+000	6,3456367E+001	2,069612187331725E-004
5,0216069E+003	1,0590405E+001	5,6947975E+000	1,2024450E+001	-2,8268332E+001	6,076372647787866E+002	6,9999087E-001	1,9379683E+000	5,5654354E+000	1,2483180E+000	1,000000000000000E+000	10	1,0401106E-002	8,6499634E-004	0	4,165772405279620E-003	7,3245697E-002	3,9386541E-002	8,3163887E-002	2,8268332E+001	1,2483181E+003	2,3214509E+003	2,6357983E+003	-6,1731667E+001	0,0000000E+000	0,0000000E+000	0,0000000E+000	6,1731667E+001	0,0000000E+000	0,0000000E+000	0,0000000E+000	-6,1731667E+001	0,0000000E+000	0,0000000E+000	0,0000000E+000	-2,8268332E+001	0,0000000E+000	0,0000000E+000	0,0000000E+000	2,8268332E+001	1,8596632E+000	6,1731667E+001	2,467506029566026E-004
3,9861731E+003	1,1488633E+001	6,5104966E+000	1,3205122E+001	-2,9539806E+001	6,081035438142571E+002	6,9999337E-001	1,9314377E+000	6,1326742E+000	1,4907104E+000	1,000000000000000E+000	10	1,0349236E-002	7,8372896E-004	0	4,411427434139937E-003	6,5884538E-002	3,7336130E-002	7,5728193E-002	2,9539806E+001	1,4907103E+003	2,6305557E+003	3,0235808E+003	-6,0460194E+001	0,0000000E+000	0,0000000E+000	0,0000000E+000	6,0460194E+001	0,0000000E+000	0,0000000E+000	0,0000000E+000	-6,0460194E+001	0,0000000E+000	0,0000000E+000	0,0000000E+000	-2,9539806E+001	0,0000000E+000	0,0000000E+000	0,0000000E+000	2,9539806E+001	1,7646323E+000	6,0460190E+001	2,456550288603169E-004
3,1669595E+003	1,2566626E+001	7,3208990E+000	1,4543577E+001	-3,0223660E+001	6,085685092763306E+002	6,9998604E-001	1,9208413E+000	6,8645678E+000	1,7394004E+000	1,000000000000000E+000	10	1,0290632E-002	7,0757227E-004	0	4,655803119050727E-003	5,9412275E-002	3,4611624E-002	6,8758875E-002	3,0223660E+001	1,7394004E+003	2,9857524E+003	3,4554641E+003	-5,9776340E+001	0,0000000E+000	0,0000000E+000	0,0000000E+000	5,9776340E+001	0,0000000E+000	0,0000000E+000	0,0000000E+000	-5,9776340E+001	0,0000000E+000	0,0000000E+000	0,0000000E+000	-3,0223660E+001	0,0000000E+000	0,0000000E+000	0,0000000E+000	3,0223660E+001	1,7165413E+000	5,9776337E+001	2,443756849107902E-004
2,5158047E+003	1,3849625E+001	8,1007767E+000	1,6044771E+001	-3,0323769E+001	6,090322918583843E+002	6,9998145E-001	1,9159434E+000	7,8093805E+000	1,9906863E+000	1,000000000000000E+000	10	1,0248104E-002	6,3871924E-004	0	4,898753669557381E-003	5,3798597E-002	3,1467307E-002	6,2325601E-002	3,0323769E+001	1,9906862E+003	3,4034092E+003	3,9428447E+003	-5,9676231E+001	0,0000000E+000	0,0000000E+000	0,0000000E+000	5,9676231E+001	0,0000000E+000	0,0000000E+000	0,0000000E+000	-5,9676231E+001	0,0000000E+000	0,0000000E+000	0,0000000E+000	-3,0323769E+001	0,0000000E+000	0,0000000E+000	0,0000000E+000	3,0323769E+001	1,7096663E+000	5,9676231E+001	2,429505505066546E-004
1,9980818E+003	1,5278945E+001	8,8511772E+000	1,7657562E+001	-3,0083950E+001	6,094985146005201E+002	6,9998246E-001	1,9077727E+000	8,9992399E+000	2,2612386E+000	1,000000000000000E+000	10	1,0211739E-002	5,7832099E-004	0	5,141679074493211E-003	4,9004037E-002	2,8388310E-002	5,6632958E-002	3,0083950E+001	2,2612388E+003	3,9033613E+003	4,5110342E+003	-5,9916050E+001	0,0000000E+000	0,0000000E+000	0,0000000E+000	5,9916050E+001	0,0000000E+000	0,0000000E+000	0,0000000E+000	-5,9916050E+001	0,0000000E+000	0,0000000E+000	0,0000000E+000	-3,0083950E+001	0,0000000E+000	0,0000000E+000	0,0000000E+000	3,0083950E+001	1,7262049E+000	5,9916046E+001	2,429254049358294E-004
1,5884750E+003	1,6944822E+001	9,4961414E+000	1,9424307E+001	-2,9266947E+001	6,099635233159206E+002	6,9999433E-001	1,9000171E+000	1,0550975E+001	2,5217142E+000	1,000000000000000E+000	10	1,0172985E-002	5,2372448E-004	0	5,383998890554817E-003	4,4910301E-002	2,5168428E-002	5,1481888E-002	2,9266947E+001	2,5217139E+003	4,4997222E+003	5,1581528E+003	-6,0733055E+001	0,0000000E+000	0,0000000E+000	0,0000000E+000	6,0733055E+001	0,0000000E+000	0,0000000E+000	0,0000000E+000	-6,0733055E+001	0,0000000E+000	0,0000000E+000	0,0000000E+000	-2,9266947E+001	0,0000000E+000	0,0000000E+000	0,0000000E+000	2,9266947E+001	1,7843902E+000	6,0733055E+001	2,423198160616058E-004
1,2604036E+003	1,8619247E+001	9,9386768E+000	2,1105774E+001	-2,8092634E+001	6,104272691513106E+002	6,9998085E-001	1,9053786E+000	1,2705213E+001	2,8173223E+000	1,000000000000000E+000	10	1,0155516E-002	4,8117241E-004	0	5,625188910382386E-003	4,1798390E-002	2,2311358E-002	4,7380399E-002	2,8092634E+001	2,8173220E+003	5,2780078E+003	5,9828647E+003	-6,1907364E+001	0,0000000E+000	0,0000000E+000	0,0000000E+000	6,1907364E+001	0,0000000E+000	0,0000000E+000	0,0000000E+000	-6,1907364E+001	0,0000000E+000	0,0000000E+000	0,0000000E+000	-2,8092634E+001	0,0000000E+000	0,0000000E+000	0,0000000E+000	2,8092634E+001	1,8734131E+000	6,1907364E+001	2,411900198275689E-004
1,0016024E+003	2,0569191E+001	1,0310446E+001	2,3008627E+001	-2,6622625E+001	6,108920143999712E+002	6,9999325E-001	1,8883839E+000	1,5411586E+001	3,0947161E+000	1,000000000000000E+000	10	1,0144831E-002	4,4091421E-004	0	5,864793352908351E-003	3,8854007E-002	1,9475833E-002	4,3461960E-002	2,6622625E+001	3,0947158E+003	6,1739136E+003	6,9061187E+003	-6,3377373E+001	0,0000000E+000	0,0000000E+000	0,0000000E+000	6,3377373E+001	0,0000000E+000	0,0000000E+000	0,0000000E+000	-6,3377373E+001	0,0000000E+000	0,0000000E+000	0,0000000E+000	-2,6622625E+001	0,0000000E+000	0,0000000E+000	0,0000000E+000	2,6622625E+001	1,9949856E+000	6,3377373E+001	2,396044425259656E-004
7,9525409E+002	2,2624582E+001	1,0510657E+001	2,4946856E+001	-2,4918074E+001	6,113572592221462E+002	6,9997680E-001	1,8758588E+000	1,9040762E+001	3,3799670E+000	1,000000000000000E+000	10	1,0131452E-002	4,0612140E-004	0	6,103707203471464E-003	3,6353726E-002	1,6888779E-002	4,0085211E-002	2,4918074E+001	3,3799673E+003	7,2755049E+003	8,0222910E+003	-6,5081924E+001	0,0000000E+000	0,0000000E+000	0,0000000E+000	6,5081924E+001	0,0000000E+000	0,0000000E+000	0,0000000E+000	-6,5081924E+001	0,0000000E+000	0,0000000E+000	0,0000000E+000	-2,4918074E+001	0,0000000E+000	0,0000000E+000	0,0000000E+000	2,4918074E+001	2,1525373E+000	6,5081924E+001	2,389138505631133E-004
6,3181964E+002	2,4606775E+001	1,0446469E+001	2,6732416E+001	-2,3002987E+001	6,118217562574864E+002	6,9997680E-001	1,8678555E+000	2,4113346E+001	3,6823080E+000	1,000000000000000E+000	10	1,0128517E-002	3,7888519E-004	0	6,340684937481950E-003	3,4433268E-002	1,4618174E-002	3,7407767E-002	2,3002987E+001	3,6823088E+003	8,6737168E+003	9,4229912E+003	-6,6997009E+001	0,0000000E+000	0,0000000E+000	0,0000000E+000	6,6997009E+001	0,0000000E+000	0,0000000E+000	0,0000000E+000	-6,6997009E+001	0,0000000E+000	0,0000000E+000	0,0000000E+000	-2,3002987E+001	0,0000000E+000	0,0000000E+000	0,0000000E+000	2,3002987E+001	2,3555112E+000	6,6997009E+001	2,369777340104854E-004
5,0208865E+002	2,6556477E+001	1,0224216E+001	2,8456652E+001	-2,1056656E+001	6,122855189995462E+002	6,9997901E-001	1,8645904E+000	3,1003428E+001	4,0022311E+000	1,000000000000000E+000	10	1,0128129E-002	3,5591429E-004	0	6,576764073067176E-003	3,2794639E-002	1,2625904E-002	3,5141170E-002	2,1056656E+001	4,0022312E+003	1,0395433E+004	1,1139249E+004	-6,8943344E+001	0,0000000E+000	0,0000000E+000	0,0000000E+000	6,8943344E+001	0,0000000E+000	0,0000000E+000	0,0000000E+000	-6,8943344E+001	0,0000000E+000	0,0000000E+000	0,0000000E+000	-2,1056656E+001	0,0000000E+000	0,0000000E+000	0,0000000E+000	2,1056656E+001	2,5974095E+000	6,8943344E+001	2,360791355852264E-004
3,9859698E+002	2,8468361E+001	9,7327137E+000	3,0086098E+001	-1,8874443E+001	6,130050221270503E+002	6,9996077E-001	1,8584229E+000	4,1025337E+001	4,2932715E+000	1,000000000000000E+000	11	1,0180664E-002	3,3838433E-004	0	6,927460066071970E-003	3,1450730E-002	1,0752320E-002	3,3237942E-002	1,8874443E+001	4,2932715E+003	1,2557896E+004	1,3271508E+004	-7,1125557E+001	0,0000000E+000	0,0000000E+000	0,0000000E+000	7,1125557E+001	0,0000000E+000	0,0000000E+000	0,0000000E+000	-7,1125557E+001	0,0000000E+000	0,0000000E+000	0,0000000E+000	-1,8874443E+001	0,0000000E+000	0,0000000E+000	0,0000000E+000	1,8874443E+001	2,9250178E+000	7,1125557E+001	3,506959930047937E-004
3,1672299E+002	3,0051676E+001	9,0730219E+000	3,1391447E+001	-1,6799801E+001	6,134682370024129E+002	6,9995242E-001	1,8604666E+000	5,5384544E+001	4,6266837E+000	1,000000000000000E+000	11	1,0160060E-002	3,2365695E-004	0	7,163071559827348E-003	3,0496221E-002	9,2072366E-003	3,1855810E-002	1,6799801E+001	4,6266846E+003	1,5324508E+004	1,6007709E+004	-7,3200195E+001	0,0000000E+000	0,0000000E+000	0,0000000E+000	7,3200195E+001	0,0000000E+000	0,0000000E+000	0,0000000E+000	-7,3200195E+001	0,0000000E+000	0,0000000E+000	0,0000000E+000	-1,6799801E+001	0,0000000E+000	0,0000000E+000	0,0000000E+000	1,6799801E+001	3,3122015E+000	7,3200195E+001	2,356114937553779E-004
2,5169135E+002	3,1633142E+001	8,3245878E+000	3,2710159E+001	-1,4743692E+001	6,139310027576721E+002	6,9995445E-001	1,8543402E+000	7,5960732E+001	4,9198208E+000	1,000000000000000E+000	11	1,0157938E-002	3,1054384E-004	0	7,397769294262799E-003	2,9564941E-002	7,7803191E-003	3,0571541E-002	1,4743692E+001	4,9198203E+003	1,8695146E+004	1,9331662E+004	-7,5256310E+001	0,0000000E+000	0,0000000E+000	0,0000000E+000	7,5256310E+001	0,0000000E+000	0,0000000E+000	0,0000000E+000	-7,5256310E+001	0,0000000E+000	0,0000000E+000	0,0000000E+000	-1,4743692E+001	0,0000000E+000	0,0000000E+000	0,0000000E+000	1,4743692E+001	3,7999649E+000	7,5256310E+001	2,346977344354515E-004
1,9980818E+002	3,2939999E+001	7,5513978E+000	3,3794483E+001	-1,2911785E+001	6,143975229398784E+002	6,9994694E-001	1,8485296E+000	1,0548228E+002	5,2667484E+000	1,000000000000000E+000	11	1,0138684E-002	3,0001003E-004	0	7,633177824315317E-003	2,8842438E-002	6,6120443E-003	2,9590629E-002	1,2911785E+001	5,2667500E+003	2,2974115E+004	2,3570078E+004	-7,7088211E+001	0,0000000E+000	0,0000000E+000	0,0000000E+000	7,7088211E+001	0,0000000E+000	0,0000000E+000	0,0000000E+000	-7,7088211E+001	0,0000000E+000	0,0000000E+000	0,0000000E+000	-1,2911785E+001	0,0000000E+000	0,0000000E+000	0,0000000E+000	1,2911785E+001	4,3621063E+000	7,7088211E+001	2,354085300525178E-004
1,5862943E+002	3,4079582E+001	6,7096748E+000	3,4733810E+001	-1,1138083E+001	6,148650584553689E+002	6,9995224E-001	1,8461484E+000	1,4953226E+002	5,5799847E+000	1,000000000000000E+000	11	1,0131225E-002	2,9168194E-004	0	7,869400536265897E-003	2,8248111E-002	5,5615599E-003	2,8790392E-002	1,1138083E+001	5,5799849E+003	2,8341691E+004	2,8885770E+004	-7,8861916E+001	0,0000000E+000	0,0000000E+000	0,0000000E+000	7,8861916E+001	0,0000000E+000	0,0000000E+000	0,0000000E+000	-7,8861916E+001	0,0000000E+000	0,0000000E+000	0,0000000E+000	-1,1138083E+001	0,0000000E+000	0,0000000E+000	0,0000000E+000	1,1138083E+001	5,0791702E+000	7,8861916E+001	2,362227119505796E-004
1,2600809E+002	3,4948513E+001	5,9114971E+000	3,5444950E+001	-9,6006355E+000	6,153277577039989E+002	6,9994342E-001	1,8427142E+000	2,1366048E+002	5,9430642E+000	1,000000000000000E+000	11	1,0126959E-002	2,8570948E-004	0	8,102280017812167E-003	2,7817620E-002	4,7053159E-003	2,8212763E-002	9,6006355E+000	5,9430620E+003	3,5135137E+004	3,5634223E+004	-8,0399368E+001	0,0000000E+000	0,0000000E+000	0,0000000E+000	8,0399368E+001	0,0000000E+000	0,0000000E+000	0,0000000E+000	-8,0399368E+001	0,0000000E+000	0,0000000E+000	0,0000000E+000	-9,6006355E+000	0,0000000E+000	0,0000000E+000	0,0000000E+000	9,6006355E+000	5,9119563E+000	8,0399368E+001	2,328794815462699E-004
1,0016024E+002	3,5788250E+001	5,1846585E+000	3,6161850E+001	-8,2431154E+000	6,157930119394296E+002	6,9995606E-001	1,8402219E+000	3,0648172E+002	6,3000445E+000	1,000000000000000E+000	11	1,0122613E-002	2,7992521E-004	0	8,335989917147490E-003	2,7367754E-002	3,9647780E-003	2,7653452E-002	8,2431154E+000	6,3000474E+003	4,3487449E+004	4,3941426E+004	-8,1756882E+001	0,0000000E+000	0,0000000E+000	0,0000000E+000	8,1756882E+001	0,0000000E+000	0,0000000E+000	0,0000000E+000	-8,1756882E+001	0,0000000E+000	0,0000000E+000	0,0000000E+000	-8,2431154E+000	0,0000000E+000	0,0000000E+000	0,0000000E+000	8,2431154E+000	6,9027209E+000	8,1756882E+001	2,337098993353236E-004
7,9516548E+001	3,6429882E+001	4,4143591E+000	3,6696362E+001	-6,9090815E+000	6,162615671617241E+002	6,9995314E-001	1,8349601E+000	4,5341400E+002	6,5612149E+000	1,000000000000000E+000	11	1,0120440E-002	2,7578865E-004	0	8,570776297390979E-003	2,7052773E-002	3,2780960E-003	2,7250659E-002	6,9090815E+000	6,5612144E+003	5,4147004E+004	5,4543078E+004	-8,3090919E+001	0,0000000E+000	0,0000000E+000	0,0000000E+000	8,3090919E+001	0,0000000E+000	0,0000000E+000	0,0000000E+000	-8,3090919E+001	0,0000000E+000	0,0000000E+000	0,0000000E+000	-6,9090815E+000	0,0000000E+000	0,0000000E+000	0,0000000E+000	6,9090815E+000	8,2525873E+000	8,3090919E+001	2,347863802434885E-004
6,3160763E+001	3,7112774E+001	3,6684656E+000	3,7293640E+001	-5,6451464E+000	6,167381564110256E+002	6,9996214E-001	1,8246151E+000	6,8689178E+002	6,6464186E+000	1,000000000000000E+000	11	1,0122939E-002	2,7143874E-004	0	8,809151495023010E-003	2,6684180E-002	2,6376364E-003	2,6814224E-002	5,6451464E+000	6,6464219E+003	6,7239836E+004	6,7567523E+004	-8,4354851E+001	0,0000000E+000	0,0000000E+000	0,0000000E+000	8,4354851E+001	0,0000000E+000	0,0000000E+000	0,0000000E+000	-8,4354851E+001	0,0000000E+000	0,0000000E+000	0,0000000E+000	-5,6451464E+000	0,0000000E+000	0,0000000E+000	0,0000000E+000	5,6451464E+000	1,0116702E+001	8,4354851E+001	2,383751976320313E-004
5,0208866E+001	3,7542736E+001	3,2198467E+000	3,7680557E+001	-4,9019680E+000	6,172024977397668E+002	6,9995916E-001	1,8217058E+000	9,8447461E+002	7,1885328E+000	1,000000000000000E+000	11	1,0111830E-002	2,6835670E-004	0	9,040172084619963E-003	2,6441816E-002	2,2677782E-003	2,6538886E-002	4,9019680E+000	7,1885356E+003	8,3816781E+004	8,4124477E+004	-8,5098030E+001	0,0000000E+000	0,0000000E+000	0,0000000E+000	8,5098030E+001	0,0000000E+000	0,0000000E+000	0,0000000E+000	-8,5098030E+001	0,0000000E+000	0,0000000E+000	0,0000000E+000	-4,9019680E+000	0,0000000E+000	0,0000000E+000	0,0000000E+000	4,9019680E+000	1,1659790E+001	8,5098030E+001	2,310205895969530E-004
3,9859695E+001	3,8006313E+001	2,6879981E+000	3,8101250E+001	-4,0455098E+000	6,176680277885025E+002	6,9994980E-001	1,8159717E+000	1,4854471E+003	7,3932719E+000	1,000000000000000E+000	11	1,0123978E-002	2,6571250E-004	0	9,271261691788263E-003	2,6180463E-002	1,8516142E-003	2,6245859E-002	4,0455098E+000	7,3932705E+003	1,0453542E+005	1,0479654E+005	-8,5954491E+001	0,0000000E+000	0,0000000E+000	0,0000000E+000	8,5954491E+001	0,0000000E+000	0,0000000E+000	0,0000000E+000	-8,5954491E+001	0,0000000E+000	0,0000000E+000	0,0000000E+000	-4,0455098E+000	0,0000000E+000	0,0000000E+000	0,0000000E+000	4,0455098E+000	1,4139264E+001	8,5954491E+001	2,310896071683003E-004
3,1672298E+001	3,8344891E+001	2,3774059E+000	3,8418522E+001	-3,5478308E+000	6,181117714895954E+002	6,9996363E-001	1,8070371E+000	2,1136702E+003	8,0939884E+000	1,000000000000000E+000	11	1,0108935E-002	2,6312660E-004	0	9,490088342770986E-003	2,5979226E-002	1,6107274E-003	2,6029112E-002	3,5478308E+000	8,0939839E+003	1,3054696E+005	1,3079763E+005	-8,6452171E+001	0,0000000E+000	0,0000000E+000	0,0000000E+000	8,6452171E+001	0,0000000E+000	0,0000000E+000	0,0000000E+000	-8,6452171E+001	0,0000000E+000	0,0000000E+000	0,0000000E+000	-3,5478308E+000	0,0000000E+000	0,0000000E+000	0,0000000E+000	3,5478308E+000	1,6128878E+001	8,6452171E+001	2,188266509827227E-004
2,5136747E+001	3,8679760E+001	1,8799717E+000	3,8725418E+001	-2,7825859E+000	6,185752711116511E+002	6,9996411E-001	1,8020205E+000	3,3679041E+003	7,9372516E+000	1,000000000000000E+000	11	1,0117244E-002	2,6125589E-004	0	9,718126190412893E-003	2,5792386E-002	1,2536003E-003	2,5822833E-002	2,7825859E+000	7,9372500E+003	1,6330617E+005	1,6349895E+005	-8,7217415E+001	0,0000000E+000	0,0000000E+000	0,0000000E+000	8,7217415E+001	0,0000000E+000	0,0000000E+000	0,0000000E+000	-8,7217415E+001	0,0000000E+000	0,0000000E+000	0,0000000E+000	-2,7825859E+000	0,0000000E+000	0,0000000E+000	0,0000000E+000	2,7825859E+000	2,0574650E+001	8,7217415E+001	2,280378476419067E-004
1,9980818E+001	3,9021946E+001	1,6062320E+000	3,9054989E+001	-2,3570940E+000	6,190415090804308E+002	6,9996101E-001	1,8004074E+000	4,9590513E+003	8,3880711E+000	1,000000000000000E+000	11	1,0118933E-002	2,5909452E-004	0	9,947306475808663E-003	2,5583260E-002	1,0530652E-003	2,5604924E-002	2,3570940E+000	8,3880713E+003	2,0378056E+005	2,0395313E+005	-8,7642906E+001	0,0000000E+000	0,0000000E+000	0,0000000E+000	8,7642906E+001	0,0000000E+000	0,0000000E+000	0,0000000E+000	-8,7642906E+001	0,0000000E+000	0,0000000E+000	0,0000000E+000	-2,3570940E+000	0,0000000E+000	0,0000000E+000	0,0000000E+000	2,3570940E+000	2,4294090E+001	8,7642906E+001	2,291802853957702E-004
1,5857577E+001	3,8998135E+001	1,2363905E+000	3,9017731E+001	-1,8158878E+000	6,194835277414386E+002	6,9994962E-001	1,7929777E+000	8,1176001E+003	8,1510763E+000	1,000000000000000E+000	11	1,0118176E-002	2,5932252E-004	0	1,016419640636053E-002	2,5616502E-002	8,1214140E-004	2,5629373E-002	1,8158878E+000	8,1510752E+003	2,5710064E+005	2,5722981E+005	-8,8184113E+001	0,0000000E+000	0,0000000E+000	0,0000000E+000	8,8184113E+001	0,0000000E+000	0,0000000E+000	0,0000000E+000	-8,8184113E+001	0,0000000E+000	0,0000000E+000	0,0000000E+000	-1,8158878E+000	0,0000000E+000	0,0000000E+000	0,0000000E+000	1,8158878E+000	3,1541924E+001	8,8184113E+001	2,168899305518713E-004
1,2600809E+001	3,9287418E+001	1,2386703E+000	3,9306942E+001	-1,8058474E+000	6,200284229406680E+002	6,9996792E-001	1,7906111E+000	1,0196849E+004	1,0126023E+001	1,000000000000000E+000	11	1,0112887E-002	2,5727993E-004	0	1,042956943117773E-002	2,5428165E-002	8,0170995E-004	2,5440799E-002	1,8058474E+000	1,0126022E+004	3,2117125E+005	3,2133084E+005	-8,8194153E+001	0,0000000E+000	0,0000000E+000	0,0000000E+000	8,8194153E+001	0,0000000E+000	0,0000000E+000	0,0000000E+000	-8,8194153E+001	0,0000000E+000	0,0000000E+000	0,0000000E+000	-1,8058474E+000	0,0000000E+000	0,0000000E+000	0,0000000E+000	1,8058474E+000	3,1717413E+001	8,8194153E+001	2,653730248171945E-004
1,0016025E+001	3,8927223E+001	1,2158093E+000	3,8946205E+001	-1,7889307E+000	6,204920111760002E+002	6,9996196E-001	1,7879307E+000	1,3069509E+004	1,2736789E+001	1,000000000000000E+000	11	1,0115372E-002	2,5972677E-004	0	1,065770094544259E-002	2,5663927E-002	8,0155837E-004	2,5676442E-002	1,7889307E+000	1,2736803E+004	4,0780063E+005	4,0799947E+005	-8,8211067E+001	0,0000000E+000	0,0000000E+000	0,0000000E+000	8,8211067E+001	0,0000000E+000	0,0000000E+000	0,0000000E+000	-8,8211067E+001	0,0000000E+000	0,0000000E+000	0,0000000E+000	-1,7889307E+000	0,0000000E+000	0,0000000E+000	0,0000000E+000	1,7889307E+000	3,2017540E+001	8,8211067E+001	2,281315142648663E-004
7,9557004E+000	3,9039364E+001	7,7495170E-001	3,9047054E+001	-1,1372018E+000	6,210647774698300E+002	6,9996631E-001	1,7849138E+000	2,5814699E+004	1,0168099E+001	1,000000000000000E+000	11	1,0120847E-002	2,5919618E-004	0	1,093847729433964E-002	2,5605083E-002	5,0827424E-004	2,5610127E-002	1,1372018E+000	1,0168078E+004	5,1223338E+005	5,1233428E+005	-8,8862801E+001	0,0000000E+000	0,0000000E+000	0,0000000E+000	8,8862801E+001	0,0000000E+000	0,0000000E+000	0,0000000E+000	-8,8862801E+001	0,0000000E+000	0,0000000E+000	0,0000000E+000	-1,1372018E+000	0,0000000E+000	0,0000000E+000	0,0000000E+000	1,1372018E+000	5,0376514E+001	8,8862801E+001	2,807763488970483E-004
6,3105812E+000	3,9218037E+001	4,6261159E-001	3,9220764E+001	-6,7582333E-001	6,214437596745411E+002	6,9993109E-001	1,7767354E+000	5,4517293E+004	7,5846434E+000	1,000000000000000E+000	11	1,0121367E-002	2,5806145E-004	0	1,112200386553553E-002	2,5494926E-002	3,0073532E-004	2,5496699E-002	6,7582333E-001	7,5846855E+003	6,4299044E+005	6,4303519E+005	-8,9324173E+001	0,0000000E+000	0,0000000E+000	0,0000000E+000	8,9324173E+001	0,0000000E+000	0,0000000E+000	0,0000000E+000	-8,9324173E+001	0,0000000E+000	0,0000000E+000	0,0000000E+000	-6,7582333E-001	0,0000000E+000	0,0000000E+000	0,0000000E+000	6,7582333E-001	8,4775299E+001	8,9324173E+001	1,835265711958838E-004
5,0144420E+000	3,9142727E+001	5,7501578E-001	3,9146950E+001	-8,4162784E-001	6,219087765232980E+002	6,9995487E-001	1,7754551E+000	5,5197293E+004	1,1909168E+001	1,000000000000000E+000	11	1,0115978E-002	2,5841038E-004	0	1,134574561255058E-002	2,5542017E-002	3,7521819E-004	2,5544774E-002	8,4162784E-001	1,1909186E+004	8,1068613E+005	8,1077363E+005	-8,9158371E+001	0,0000000E+000	0,0000000E+000	0,0000000E+000	8,9158371E+001	0,0000000E+000	0,0000000E+000	0,0000000E+000	-8,9158371E+001	0,0000000E+000	0,0000000E+000	0,0000000E+000	-8,4162784E-001	0,0000000E+000	0,0000000E+000	0,0000000E+000	8,4162784E-001	6,8072441E+001	8,9158371E+001	2,237417470150518E-004
3,9859698E+000	3,9608871E+001	2,3874925E-001	3,9609592E+001	-3,4535593E-001	6,224802339104608E+002	6,9995576E-001	1,7739512E+000	1,6724153E+005	6,0761352E+000	1,000000000000000E+000	11	1,0117011E-002	2,5541821E-004	0	1,162674326358399E-002	2,5245951E-002	1,5217428E-004	2,5246410E-002	3,4535593E-001	6,0760688E+003	1,0080403E+006	1,0080586E+006	-8,9654648E+001	0,0000000E+000	0,0000000E+000	0,0000000E+000	8,9654648E+001	0,0000000E+000	0,0000000E+000	0,0000000E+000	-8,9654648E+001	0,0000000E+000	0,0000000E+000	0,0000000E+000	-3,4535593E-001	0,0000000E+000	0,0000000E+000	0,0000000E+000	3,4535593E-001	1,6590155E+002	8,9654648E+001	2,809976510334145E-004
3,1655185E+000	3,9914780E+001	1,2895039E-001	3,9914989E+001	-1,8510154E-001	6,231863289839966E+002	6,9995475E-001	1,7674167E+000	3,8989944E+005	4,0693579E+000	1,000000000000000E+000	11	1,0108692E-002	2,5325554E-004	0	1,196916981257214E-002	2,5053114E-002	8,0937651E-005	2,5053244E-002	1,8510154E-001	4,0694202E+003	1,2596125E+006	1,2596191E+006	-8,9814896E+001	0,0000000E+000	0,0000000E+000	0,0000000E+000	8,9814896E+001	0,0000000E+000	0,0000000E+000	0,0000000E+000	-8,9814896E+001	0,0000000E+000	0,0000000E+000	0,0000000E+000	-1,8510154E-001	0,0000000E+000	0,0000000E+000	0,0000000E+000	1,8510154E-001	3,0953595E+002	8,9814896E+001	3,424265489881430E-004
2,5136747E+000	4,0147305E+001	1,0265666E-001	4,0147434E+001	-1,4650500E-001	6,240622544122671E+002	6,9996703E-001	1,7682661E+000	6,1677094E+005	4,0325766E+000	1,000000000000000E+000	11	1,0116783E-002	2,5199077E-004	0	1,239070357310715E-002	2,4908110E-002	6,3690044E-005	2,4908192E-002	1,4650500E-001	4,0326384E+003	1,5770731E+006	1,5770783E+006	-8,9853493E+001	0,0000000E+000	0,0000000E+000	0,0000000E+000	8,9853493E+001	0,0000000E+000	0,0000000E+000	0,0000000E+000	-8,9853493E+001	0,0000000E+000	0,0000000E+000	0,0000000E+000	-1,4650500E-001	0,0000000E+000	0,0000000E+000	0,0000000E+000	1,4650500E-001	3,9108328E+002	8,9853493E+001	4,215337605350134E-004
1,9970603E+000	4,0269646E+001	5,6790030E-001	4,0273651E+001	-8,0795676E-001	6,251542711574657E+002	6,9996542E-001	1,7560230E+000	1,4033203E+005	2,7903522E+001	1,000000000000000E+000	11	1,0116322E-002	2,5118960E-004	0	1,291803988640393E-002	2,4827663E-002	3,5013063E-004	2,4830131E-002	8,0795676E-001	2,7903654E+004	1,9786309E+006	1,9788276E+006	-8,9192039E+001	0,0000000E+000	0,0000000E+000	0,0000000E+000	8,9192039E+001	0,0000000E+000	0,0000000E+000	0,0000000E+000	-8,9192039E+001	0,0000000E+000	0,0000000E+000	0,0000000E+000	-8,0795676E-001	0,0000000E+000	0,0000000E+000	0,0000000E+000	8,0795676E-001	7,0909714E+001	8,9192039E+001	5,273363132967824E-004
1,5846856E+000	4,0172295E+001	-2,1430938E-001	4,0172867E+001	3,0565608E-001	6,265187095155561E+002	6,9996846E-001	1,7504336E+000	-4,6863622E+005	-1,3336828E+001	1,000000000000000E+000	11	1,0113984E-002	2,5176158E-004	0	1,358224035147201E-002	2,4892069E-002	-1,3279311E-004	2,4892423E-002	-3,0565608E-001	-1,3336844E+004	2,4999888E+006	2,5000243E+006	-9,0305656E+001	0,0000000E+000	0,0000000E+000	0,0000000E+000	9,0305656E+001	0,0000000E+000	0,0000000E+000	0,0000000E+000	-9,0305656E+001	0,0000000E+000	0,0000000E+000	0,0000000E+000	3,0565608E-001	0,0000000E+000	0,0000000E+000	0,0000000E+000	-3,0565608E-001	1,8745001E+002	8,9694344E+001	6,642004650680797E-004
1,2596742E+000	4,0638947E+001	-2,7753830E-001	4,0639893E+001	3,9128786E-001	6,282256118899822E+002	6,9996768E-001	1,7415892E+000	-4,5523850E+005	-2,1231453E+001	1,000000000000000E+000	11	1,0117994E-002	2,4896703E-004	0	1,441181600489479E-002	2,4605790E-002	-1,6804198E-004	2,4606364E-002	-3,9128786E-001	-2,1231502E+004	3,1088463E+006	3,1089188E+006	-9,0391289E+001	0,0000000E+000	0,0000000E+000	0,0000000E+000	9,0391289E+001	0,0000000E+000	0,0000000E+000	0,0000000E+000	-9,0391289E+001	0,0000000E+000	0,0000000E+000	0,0000000E+000	3,9128786E-001	0,0000000E+000	0,0000000E+000	0,0000000E+000	-3,9128786E-001	1,4642644E+002	8,9608711E+001	8,295756534227785E-004
1,0000639E+000	4,1357052E+001	2,9568549E-002	4,1357063E+001	-4,0964060E-002	6,303647300715529E+002	6,9997573E-001	1,7280732E+000	5,3822310E+006	2,7512052E+000	1,000000000000000E+000	11	1,0117535E-002	2,4463862E-004	0	1,544071500382277E-002	2,4179662E-002	1,7287439E-005	2,4179667E-002	4,0964060E-002	2,7510818E+003	3,8480665E+006	3,8480675E+006	-8,9959038E+001	0,0000000E+000	0,0000000E+000	0,0000000E+000	8,9959038E+001	0,0000000E+000	0,0000000E+000	0,0000000E+000	-8,9959038E+001	0,0000000E+000	0,0000000E+000	0,0000000E+000	-4,0964060E-002	0,0000000E+000	0,0000000E+000	0,0000000E+000	4,0964060E-002	1,3986838E+003	8,9959038E+001	1,028898998927984E-003
7,9882401E-001	4,4936573E+001	-6,2843877E-001	4,4940968E+001	8,0123031E-001	8,408316390282271E+002	6,9992518E-001	1,6042093E+000	-3,1703416E+005	-6,1993641E+001	1,000000000000000E+000	11	1,0341770E-002	2,3011900E-004	0	1,115500619986309E-001	2,2249237E-002	-3,1115598E-004	2,2251412E-002	-8,0123031E-001	-6,1993734E+004	4,4328615E+006	4,4332950E+006	-9,0801231E+001	0,0000000E+000	0,0000000E+000	0,0000000E+000	9,0801231E+001	0,0000000E+000	0,0000000E+000	0,0000000E+000	-9,0801231E+001	0,0000000E+000	0,0000000E+000	0,0000000E+000	8,0123031E-001	0,0000000E+000	0,0000000E+000	0,0000000E+000	-8,0123031E-001	7,1505096E+001	8,9198769E+001	9,610934699480815E-002
6,2907392E-001	4,6433880E+001	1,0939127E+000	4,6446762E+001	-1,3495532E+000	8,408320817748754E+002	6,9992518E-001	1,6042093E+000	2,3127877E+005	1,2828925E+002	1,000000000000000E+000	11	1,0344170E-002	2,2271025E-004	0	1,115500619986309E-001	2,1524055E-002	5,0707452E-004	2,1530027E-002	1,3495532E+000	1,2828950E+005	5,4455595E+006	5,4470705E+006	-8,8650444E+001	0,0000000E+000	0,0000000E+000	0,0000000E+000	8,8650444E+001	0,0000000E+000	0,0000000E+000	0,0000000E+000	-8,8650444E+001	0,0000000E+000	0,0000000E+000	0,0000000E+000	-1,3495532E+000	0,0000000E+000	0,0000000E+000	0,0000000E+000	1,3495532E+000	4,2447517E+001	8,8650444E+001	0,000000000000000E+000
4,9926502E-001	4,7232330E+001	-1,2444936E+000	4,7248722E+001	1,5092995E+000	8,408325245215237E+002	6,9992518E-001	1,6042093E+000	-2,5615117E+005	-1,7770578E+002	1,000000000000000E+000	11	1,0345622E-002	2,1896088E-004	0	1,115500619986309E-001	2,1157252E-002	-5,5745849E-004	2,1164594E-002	-1,5092995E+000	-1,7770584E+005	6,7444765E+006	6,7468170E+006	-9,1509300E+001	0,0000000E+000	0,0000000E+000	0,0000000E+000	9,1509300E+001	0,0000000E+000	0,0000000E+000	0,0000000E+000	-9,1509300E+001	0,0000000E+000	0,0000000E+000	0,0000000E+000	1,5092995E+000	0,0000000E+000	0,0000000E+000	0,0000000E+000	-1,5092995E+000	3,7953053E+001	8,8490700E+001	0,000000000000000E+000
3,9941201E-001	4,6846889E+001	-4,8687878E-001	4,6849419E+001	5,9545249E-001	8,408329672681721E+002	6,9992518E-001	1,6042093E+000	-8,1842363E+005	-8,8391693E+001	1,000000000000000E+000	11	1,0346403E-002	2,2084379E-004	0	1,115500619986309E-001	2,1343829E-002	-2,2182601E-004	2,1344982E-002	-5,9545249E-001	-8,8391523E+004	8,5049420E+006	8,5054010E+006	-9,0595451E+001	0,0000000E+000	0,0000000E+000	0,0000000E+000	9,0595451E+001	0,0000000E+000	0,0000000E+000	0,0000000E+000	-9,0595451E+001	0,0000000E+000	0,0000000E+000	0,0000000E+000	5,9545249E-001	0,0000000E+000	0,0000000E+000	0,0000000E+000	-5,9545249E-001	9,6218796E+001	8,9404549E+001	0,000000000000000E+000
3,1952962E-001	4,4909821E+001	2,1194570E+000	4,4959805E+001	-2,7019904E+000	8,408334100148204E+002	6,9992518E-001	1,6042093E+000	2,3500895E+005	5,2225763E+002	1,000000000000000E+000	11	1,0346581E-002	2,3012959E-004	0	1,115500619986309E-001	2,2217361E-002	1,0485176E-003	2,2242090E-002	2,7019904E+000	5,2225716E+005	1,1066275E+007	1,1078592E+007	-8,7298012E+001	0,0000000E+000	0,0000000E+000	0,0000000E+000	8,7298012E+001	0,0000000E+000	0,0000000E+000	0,0000000E+000	-8,7298012E+001	0,0000000E+000	0,0000000E+000	0,0000000E+000	-2,7019904E+000	0,0000000E+000	0,0000000E+000	0,0000000E+000	2,7019904E+000	2,1189304E+001	8,7298012E+001	0,000000000000000E+000
2,4963251E-001	4,3591045E+001	-3,6726120E-001	4,3592594E+001	4,8271424E-001	8,408338527614687E+002	6,9992518E-001	1,6042093E+000	-1,7359770E+006	-1,2321643E+002	1,000000000000000E+000	11	1,0347679E-002	2,3737241E-004	0	1,115500619986309E-001	2,2938862E-002	-1,9326340E-004	2,2939676E-002	-4,8271424E-001	-1,2321581E+005	1,4624832E+007	1,4625351E+007	-9,0482712E+001	0,0000000E+000	0,0000000E+000	0,0000000E+000	9,0482712E+001	0,0000000E+000	0,0000000E+000	0,0000000E+000	-9,0482712E+001	0,0000000E+000	0,0000000E+000	0,0000000E+000	4,8271424E-001	0,0000000E+000	0,0000000E+000	0,0000000E+000	-4,8271424E-001	1,1869221E+002	8,9517288E+001	0,000000000000000E+000
1,9970600E-001	4,6777782E+001	4,7233419E+000	4,7015644E+001	-5,7658443E+000	8,408342955081171E+002	6,9992518E-001	1,6042093E+000	1,6872508E+005	1,7029175E+003	1,000000000000000E+000	11	1,0347442E-002	2,2008507E-004	0	1,115500619986309E-001	2,1161910E-002	2,1368037E-003	2,1269517E-002	5,7658443E+000	1,7029184E+006	1,6864904E+007	1,6950662E+007	-8,4234154E+001	0,0000000E+000	0,0000000E+000	0,0000000E+000	8,4234154E+001	0,0000000E+000	0,0000000E+000	0,0000000E+000	-8,4234154E+001	0,0000000E+000	0,0000000E+000	0,0000000E+000	-5,7658443E+000	0,0000000E+000	0,0000000E+000	0,0000000E+000	5,7658443E+000	9,9035349E+000	8,4234154E+001	0,000000000000000E+000
1,5976481E-001	4,2400925E+001	-3,3949816E+000	4,2536625E+001	4,5778251E+000	8,408347382547654E+002	6,9992518E-001	1,6042093E+000	-2,9342803E+005	-1,8691769E+003	1,000000000000000E+000	11	1,0346855E-002	2,4324580E-004	0	1,115500619986309E-001	2,3434155E-002	-1,8763392E-003	2,3509152E-002	-4,5778251E+000	-1,8691776E+006	2,3344698E+007	2,3419410E+007	-9,4577827E+001	0,0000000E+000	0,0000000E+000	0,0000000E+000	9,4577827E+001	0,0000000E+000	0,0000000E+000	0,0000000E+000	-9,4577827E+001	0,0000000E+000	0,0000000E+000	0,0000000E+000	4,5778251E+000	0,0000000E+000	0,0000000E+000	0,0000000E+000	-4,5778251E+000	1,2489294E+001	8,5422173E+001	0,000000000000000E+000
1,2980890E-001	4,4140915E+001	-1,6708161E+000	4,4172523E+001	2,1677175E+000	8,408351810014137E+002	6,9992518E-001	1,6042093E+000	-7,3381575E+005	-1,0498805E+003	1,000000000000000E+000	11	1,0347798E-002	2,3425870E-004	0	1,115500619986309E-001	2,2622306E-002	-8,5629657E-004	2,2638507E-002	-2,1677175E+000	-1,0498803E+006	2,7736558E+007	2,7756420E+007	-9,2167717E+001	0,0000000E+000	0,0000000E+000	0,0000000E+000	9,2167717E+001	0,0000000E+000	0,0000000E+000	0,0000000E+000	-9,2167717E+001	0,0000000E+000	0,0000000E+000	0,0000000E+000	2,1677175E+000	0,0000000E+000	0,0000000E+000	0,0000000E+000	-2,1677175E+000	2,6418776E+001	8,7832283E+001	0,000000000000000E+000
9,9853002E-002	4,7993534E+001	3,7214761E+000	4,8137600E+001	-4,4339113E+000	8,408356237480621E+002	6,9992518E-001	1,6042093E+000	4,2829575E+005	2,5597961E+003	1,000000000000000E+000	11	1,0347911E-002	2,1496526E-004	0	1,115500619986309E-001	2,0711608E-002	1,6060030E-003	2,0773781E-002	4,4339113E+000	2,5597978E+006	3,3012078E+007	3,3111174E+007	-8,5566086E+001	0,0000000E+000	0,0000000E+000	0,0000000E+000	8,5566086E+001	0,0000000E+000	0,0000000E+000	0,0000000E+000	-8,5566086E+001	0,0000000E+000	0,0000000E+000	0,0000000E+000	-4,4339113E+000	0,0000000E+000	0,0000000E+000	0,0000000E+000	4,4339113E+000	1,2896371E+001	8,5566086E+001	0,000000000000000E+000
7,9882406E-002	4,2071594E+001	3,4821763E+000	4,2215454E+001	-4,7314649E+000	8,408360664947104E+002	6,9992518E-001	1,6042093E+000	5,7216106E+005	3,8929321E+003	1,000000000000000E+000	11	1,0349239E-002	2,4515286E-004	0	1,115500619986309E-001	2,3607284E-002	1,9539245E-003	2,3688007E-002	4,7314649E+000	3,8929348E+006	4,7034336E+007	4,7195168E+007	-8,5268532E+001	0,0000000E+000	0,0000000E+000	0,0000000E+000	8,5268532E+001	0,0000000E+000	0,0000000E+000	0,0000000E+000	-8,5268532E+001	0,0000000E+000	0,0000000E+000	0,0000000E+000	-4,7314649E+000	0,0000000E+000	0,0000000E+000	0,0000000E+000	4,7314649E+000	1,2081983E+001	8,5268532E+001	0,000000000000000E+000
5,9911802E-002	4,4450878E+001	2,2966785E+000	4,4510170E+001	-2,9577160E+000	8,408365092413587E+002	6,9992518E-001	1,6042093E+000	1,1566649E+006	3,0795657E+003	1,000000000000000E+000	11	1,0348458E-002	2,3249647E-004	0	1,115500619986309E-001	2,2436846E-002	1,1592621E-003	2,2466775E-002	2,9577160E+000	3,0795673E+006	5,9603196E+007	5,9682700E+007	-8,7042282E+001	0,0000000E+000	0,0000000E+000	0,0000000E+000	8,7042282E+001	0,0000000E+000	0,0000000E+000	0,0000000E+000	-8,7042282E+001	0,0000000E+000	0,0000000E+000	0,0000000E+000	-2,9577160E+000	0,0000000E+000	0,0000000E+000	0,0000000E+000	2,9577160E+000	1,9354418E+001	8,7042282E+001	0,000000000000000E+000
4,9926501E-002	4,1344360E+001	-4,9675143E-001	4,1347343E+001	6,8837422E-001	8,408369519880071E+002	6,9992518E-001	1,6042093E+000	-6,4172640E+006	-9,2626001E+002	1,000000000000000E+000	11	1,0348065E-002	2,5027158E-004	0	1,115500619986309E-001	2,4183605E-002	-2,9056540E-004	2,4185350E-002	-6,8837422E-001	-9,2626425E+005	7,7092128E+007	7,7097696E+007	-9,0688377E+001	0,0000000E+000	0,0000000E+000	0,0000000E+000	9,0688377E+001	0,0000000E+000	0,0000000E+000	0,0000000E+000	-9,0688377E+001	0,0000000E+000	0,0000000E+000	0,0000000E+000	6,8837422E-001	0,0000000E+000	0,0000000E+000	0,0000000E+000	-6,8837422E-001	8,3229477E+001	8,9311623E+001	0,000000000000000E+000
3,9941203E-002	4,6471882E+001	5,1216257E-001	4,6474705E+001	-6,3142622E-001	8,408373947346554E+002	6,9992518E-001	1,6042093E+000	7,7802080E+006	9,4487329E+002	1,000000000000000E+000	11	1,0348698E-002	2,2267377E-004	0	1,115500619986309E-001	2,1515775E-002	2,3712347E-004	2,1517081E-002	6,3142622E-001	9,4486988E+005	8,5734576E+007	8,5739784E+007	-8,9368576E+001	0,0000000E+000	0,0000000E+000	0,0000000E+000	8,9368576E+001	0,0000000E+000	0,0000000E+000	0,0000000E+000	-8,9368576E+001	0,0000000E+000	0,0000000E+000	0,0000000E+000	-6,3142622E-001	0,0000000E+000	0,0000000E+000	0,0000000E+000	6,3142622E-001	9,0736588E+001	8,9368576E+001	0,000000000000000E+000
2,9955901E-002	4,3323021E+001	2,7850688E+000	4,3412449E+001	-3,6782618E+000	8,408378374813037E+002	6,9992518E-001	1,6042093E+000	1,9076639E+006	7,8513638E+003	1,000000000000000E+000	11	1,0347863E-002	2,3836165E-004	0	1,115501464526309E-001	2,2987416E-002	1,4777717E-003	2,3034867E-002	3,6782618E+000	7,8513615E+006	1,2213156E+008	1,2238366E+008	-8,6321739E+001	0,0000000E+000	0,0000000E+000	0,0000000E+000	8,6321739E+001	0,0000000E+000	0,0000000E+000	0,0000000E+000	-8,6321739E+001	0,0000000E+000	0,0000000E+000	0,0000000E+000	-3,6782618E+000	0,0000000E+000	0,0000000E+000	0,0000000E+000	3,6782618E+000	1,5555458E+001	8,6321739E+001	8,445400000167691E-008
1,9970601E-002	4,6154545E+001	2,6850924E+000	4,6232582E+001	-3,3294935E+000	8,408382802279521E+002	6,9992518E-001	1,6042093E+000	2,9680400E+006	1,0011334E+004	1,000000000000000E+000	11	1,0346281E-002	2,2378766E-004	0	1,115501464526309E-001	2,1593258E-002	1,2562120E-003	2,1629767E-002	3,3294935E+000	1,0011325E+007	1,7208664E+008	1,7237760E+008	-8,6670509E+001	0,0000000E+000	0,0000000E+000	0,0000000E+000	8,6670509E+001	0,0000000E+000	0,0000000E+000	0,0000000E+000	-8,6670509E+001	0,0000000E+000	0,0000000E+000	0,0000000E+000	-3,3294935E+000	0,0000000E+000	0,0000000E+000	0,0000000E+000	3,3294935E+000	1,7189182E+001	8,6670509E+001	0,000000000000000E+000
9,9853007E-003	4,5645817E+001	-1,4475056E+000	4,5668762E+001	1,8163369E+000	8,408387229746004E+002	6,9992518E-001	1,6042093E+000	-1,1011304E+007	-1,1062182E+004	1,000000000000000E+000	11	1,0351152E-002	2,2665717E-004	0	1,115501464526309E-001	2,1885803E-002	-6,9403567E-004	2,1896806E-002	-1,8163369E+000	-1,1062186E+007	3,4883616E+008	3,4901152E+008	-9,1816338E+001	0,0000000E+000	0,0000000E+000	0,0000000E+000	9,1816338E+001	0,0000000E+000	0,0000000E+000	0,0000000E+000	-9,1816338E+001	0,0000000E+000	0,0000000E+000	0,0000000E+000	1,8163369E+000	0,0000000E+000	0,0000000E+000	0,0000000E+000	-1,8163369E+000	3,1534121E+001	8,8183662E+001	0,000000000000000E+000