File: fig_4_nife_ceo2/Activity_2_CV/Fe100_Activity_2_CV_2_02_CV_C01.txt
Ewe/V	<I>/mA	cycle number
-3,2509532E-005	-8,955612778663635E-001	1,000000000000000E+000
2,6709898E-003	-3,646925385735861E-002	1,000000000000000E+000
5,6354846E-003	-1,781024085067409E-002	1,000000000000000E+000
8,5724778E-003	-1,215400609187522E-002	1,000000000000000E+000
1,1696353E-002	-9,259393596161125E-003	1,000000000000000E+000
1,4709797E-002	-7,458197526436290E-003	1,000000000000000E+000
1,7637616E-002	-6,245106893369066E-003	1,000000000000000E+000
2,0647492E-002	-5,351371278148470E-003	1,000000000000000E+000
2,3655627E-002	-4,661672743576645E-003	1,000000000000000E+000
2,6822232E-002	-4,362256200005250E-003	1,000000000000000E+000
2,9815242E-002	-3,911521643102669E-003	1,000000000000000E+000
3,2827627E-002	-3,543013023094281E-003	1,000000000000000E+000
3,5884622E-002	-3,223915705081890E-003	1,000000000000000E+000
3,8851332E-002	-2,943951863047931E-003	1,000000000000000E+000
4,1749038E-002	-2,722973853125685E-003	1,000000000000000E+000
4,4791847E-002	-2,527265748811076E-003	1,000000000000000E+000
4,7802474E-002	-2,323349895196763E-003	1,000000000000000E+000
5,0849892E-002	-2,162683770173267E-003	1,000000000000000E+000
5,3820867E-002	-2,037272289776917E-003	1,000000000000000E+000
5,6812014E-002	-1,896422284052998E-003	1,000000000000000E+000
5,9855185E-002	-1,795645566356778E-003	1,000000000000000E+000
6,2837839E-002	-1,690167717321099E-003	1,000000000000000E+000
6,5822616E-002	-1,586963003626689E-003	1,000000000000000E+000
6,8794645E-002	-1,505537211047677E-003	1,000000000000000E+000
7,1834646E-002	-1,440514718732657E-003	1,000000000000000E+000
7,4803486E-002	-1,351543674067127E-003	1,000000000000000E+000
7,7850908E-002	-1,301092948342544E-003	1,000000000000000E+000
8,0794275E-002	-1,240203295094463E-003	1,000000000000000E+000
8,3784357E-002	-1,172795349153936E-003	1,000000000000000E+000
8,6827539E-002	-1,117630872684666E-003	1,000000000000000E+000
8,9810200E-002	-1,089773453080718E-003	1,000000000000000E+000
9,2830002E-002	-1,027647183267075E-003	1,000000000000000E+000
9,5814779E-002	-1,000778085741155E-003	1,000000000000000E+000
9,8786801E-002	-9,540040128645797E-004	1,000000000000000E+000
1,0182893E-001	-8,884844480372793E-004	1,000000000000000E+000
1,0479034E-001	-8,539706021733597E-004	1,000000000000000E+000
1,0779635E-001	-8,142486542783850E-004	1,000000000000000E+000
1,1084697E-001	-7,909935408581224E-004	1,000000000000000E+000
1,1380517E-001	-7,530439638853068E-004	1,000000000000000E+000
1,1680376E-001	-7,248513695201058E-004	1,000000000000000E+000
1,1983208E-001	-6,647906364675455E-004	1,000000000000000E+000
1,2281898E-001	-6,279782576850221E-004	1,000000000000000E+000
1,2574854E-001	-5,960684495299719E-004	1,000000000000000E+000
1,2883012E-001	-5,504637359889709E-004	1,000000000000000E+000
1,3177542E-001	-5,201320027460798E-004	1,000000000000000E+000
1,3479099E-001	-4,666863428185288E-004	1,000000000000000E+000
1,3778950E-001	-4,311414276887077E-004	1,000000000000000E+000
1,4088054E-001	-3,980514162701390E-004	1,000000000000000E+000
1,4384513E-001	-3,658585449584318E-004	1,000000000000000E+000
1,4682423E-001	-3,118343671196780E-004	1,000000000000000E+000
1,4984016E-001	-2,904474094786908E-004	1,000000000000000E+000
1,5284511E-001	-2,304516587041572E-004	1,000000000000000E+000
1,5587981E-001	-2,134124320284283E-004	1,000000000000000E+000
1,5886246E-001	-1,561400961547000E-004	1,000000000000000E+000
1,6181007E-001	-1,225177937569590E-004	1,000000000000000E+000
1,6481821E-001	-8,238591441446464E-005	1,000000000000000E+000
1,6776687E-001	-3,534218263318055E-005	1,000000000000000E+000
1,7089924E-001	-8,576241091280343E-006	1,000000000000000E+000
1,7386170E-001	2,533484531427378E-005	1,000000000000000E+000
1,7685072E-001	6,540687657067201E-005	1,000000000000000E+000
1,7984614E-001	9,182867910752517E-005	1,000000000000000E+000
1,8286595E-001	1,162727172241522E-004	1,000000000000000E+000
1,8583904E-001	1,421477746075088E-004	1,000000000000000E+000
1,8886098E-001	1,768952550214643E-004	1,000000000000000E+000
1,9186489E-001	1,952746258493875E-004	1,000000000000000E+000
1,9493139E-001	2,088614416675066E-004	1,000000000000000E+000
1,9787475E-001	2,180946257980469E-004	1,000000000000000E+000
2,0080645E-001	2,313074620317254E-004	1,000000000000000E+000
2,0382096E-001	2,325118379419089E-004	1,000000000000000E+000
2,0682059E-001	2,404885346009812E-004	1,000000000000000E+000
2,0986697E-001	2,171097802846546E-004	1,000000000000000E+000
2,1279970E-001	2,069970439777333E-004	1,000000000000000E+000
2,1581209E-001	1,934056943896870E-004	1,000000000000000E+000
2,1882127E-001	1,981320696329998E-004	1,000000000000000E+000
2,2182044E-001	1,699404565650440E-004	1,000000000000000E+000
2,2481103E-001	1,586750148180109E-004	1,000000000000000E+000
2,2782657E-001	1,352107818513707E-004	1,000000000000000E+000
2,3078915E-001	1,059321544286216E-004	1,000000000000000E+000
2,3384391E-001	1,049217460805604E-004	1,000000000000000E+000
2,3676285E-001	8,287881140740967E-005	1,000000000000000E+000
2,3980370E-001	7,231113645423960E-005	1,000000000000000E+000
2,4284603E-001	3,860196299006641E-005	1,000000000000000E+000
2,4575649E-001	2,803331446192390E-005	1,000000000000000E+000
2,4883115E-001	1,785593124214786E-005	1,000000000000000E+000
2,5180355E-001	4,043307776034303E-007	1,000000000000000E+000
2,5480106E-001	-7,257204937029818E-006	1,000000000000000E+000
2,5779963E-001	-6,012257324234792E-006	1,000000000000000E+000
2,6078653E-001	-1,184161462654918E-005	1,000000000000000E+000
2,6376703E-001	-2,570137202820278E-005	1,000000000000000E+000
2,6675925E-001	-3,312565595912190E-005	1,000000000000000E+000
2,6980349E-001	-4,952041860969632E-005	1,000000000000000E+000
2,7279148E-001	-3,450926572841101E-005	1,000000000000000E+000
2,7571356E-001	-3,561555015050964E-005	1,000000000000000E+000
2,7876633E-001	-7,441916257481054E-005	1,000000000000000E+000
2,8182435E-001	-6,828140770693907E-005	1,000000000000000E+000
2,8475925E-001	-6,068819310139754E-005	1,000000000000000E+000
2,8774825E-001	-7,138880148609649E-005	1,000000000000000E+000
2,9077128E-001	-8,222844418187829E-005	1,000000000000000E+000
2,9375711E-001	-7,681089312926560E-005	1,000000000000000E+000
2,9673761E-001	-9,235933941058305E-005	1,000000000000000E+000
2,9972982E-001	-7,632722571161081E-005	1,000000000000000E+000
3,0272099E-001	-5,575157270523712E-005	1,000000000000000E+000
3,0576417E-001	-7,520963033156886E-005	1,000000000000000E+000
3,0876911E-001	-8,022646165088752E-005	1,000000000000000E+000
3,1172946E-001	-5,922977121488758E-005	1,000000000000000E+000
3,1473756E-001	-7,172271337414380E-005	1,000000000000000E+000
3,1770751E-001	-6,891426341074309E-005	1,000000000000000E+000
3,2081226E-001	-4,599278180199902E-005	1,000000000000000E+000
3,2372475E-001	-7,133907852573313E-005	1,000000000000000E+000
3,2675955E-001	-5,090439366135265E-005	1,000000000000000E+000
3,2976979E-001	-5,839800475252008E-005	1,000000000000000E+000
3,3273998E-001	-5,167174989737324E-005	1,000000000000000E+000
3,3577970E-001	-4,332537593593872E-005	1,000000000000000E+000
3,3872625E-001	-4,011967764046001E-005	1,000000000000000E+000
3,4170231E-001	-3,646815051385074E-005	1,000000000000000E+000
3,4475100E-001	-3,108144609453167E-005	1,000000000000000E+000
3,4775063E-001	-4,025596444989782E-005	1,000000000000000E+000
3,5070950E-001	1,674757456988555E-006	1,000000000000000E+000
3,5376370E-001	-2,097721906831217E-005	1,000000000000000E+000
3,5666886E-001	-7,417999338913842E-006	1,000000000000000E+000
3,5973221E-001	-1,278805015581358E-005	1,000000000000000E+000
3,6271694E-001	-1,793778272853470E-005	1,000000000000000E+000
3,6575168E-001	-1,062823858139911E-005	1,000000000000000E+000
3,6867803E-001	-3,453824172086137E-006	1,000000000000000E+000
3,7170637E-001	-6,130895396380186E-007	1,000000000000000E+000
3,7474209E-001	9,619203649377761E-006	1,000000000000000E+000
3,7771836E-001	-4,968028044012795E-006	1,000000000000000E+000
3,8069996E-001	8,857996535765664E-006	1,000000000000000E+000
3,8369647E-001	1,896546353535422E-005	1,000000000000000E+000
3,8671941E-001	2,748363036968475E-005	1,000000000000000E+000
3,8969356E-001	3,516599850800486E-005	1,000000000000000E+000
3,9266455E-001	4,682615425709714E-005	1,000000000000000E+000
3,9571515E-001	6,300419619535756E-005	1,000000000000000E+000
3,9871693E-001	5,963266601919683E-005	1,000000000000000E+000
4,0167513E-001	8,672918504301868E-005	1,000000000000000E+000
4,0469924E-001	9,368587661847099E-005	1,000000000000000E+000
4,0766805E-001	1,088380617894858E-004	1,000000000000000E+000
4,1074836E-001	1,312603675241782E-004	1,000000000000000E+000
4,1375226E-001	1,494242509880736E-004	1,000000000000000E+000
4,1672599E-001	1,488750710444300E-004	1,000000000000000E+000
4,1966236E-001	1,809379081904668E-004	1,000000000000000E+000
4,2269173E-001	2,245992225904634E-004	1,000000000000000E+000
4,2569789E-001	2,432521897987793E-004	1,000000000000000E+000
4,2873457E-001	2,597050968779066E-004	1,000000000000000E+000
4,3172675E-001	2,844284548732369E-004	1,000000000000000E+000
4,3473995E-001	3,203493001868508E-004	1,000000000000000E+000
4,3770060E-001	3,759826163316571E-004	1,000000000000000E+000
4,4072464E-001	3,963053004845543E-004	1,000000000000000E+000
4,4375581E-001	4,461245073058692E-004	1,000000000000000E+000
4,4672391E-001	4,828888268395195E-004	1,000000000000000E+000
4,4977239E-001	5,468679104635825E-004	1,000000000000000E+000
4,5274231E-001	6,145333604155017E-004	1,000000000000000E+000
4,5573345E-001	6,946402794826122E-004	1,000000000000000E+000
4,5871714E-001	7,759848088172566E-004	1,000000000000000E+000
4,6177199E-001	8,538288335936811E-004	1,000000000000000E+000
4,6477699E-001	9,738552915206870E-004	1,000000000000000E+000
4,6775746E-001	1,080972006691442E-003	1,000000000000000E+000
4,7075397E-001	1,191152042987861E-003	1,000000000000000E+000
4,7374505E-001	1,350504121222902E-003	1,000000000000000E+000
4,7677878E-001	1,480633133470370E-003	1,000000000000000E+000
4,7972953E-001	1,641962800271702E-003	1,000000000000000E+000
4,8278114E-001	1,857256730374322E-003	1,000000000000000E+000
4,8572561E-001	2,095409861753647E-003	1,000000000000000E+000
4,8879427E-001	2,352657500230637E-003	1,000000000000000E+000
4,9178225E-001	2,717702281875164E-003	1,000000000000000E+000
4,9479571E-001	3,111197746324762E-003	1,000000000000000E+000
4,9776667E-001	3,624510291686388E-003	1,000000000000000E+000
5,0081307E-001	4,280703984085601E-003	1,000000000000000E+000
5,0382012E-001	5,075215398210684E-003	1,000000000000000E+000
5,0684309E-001	6,071189113108874E-003	1,000000000000000E+000
5,0977266E-001	7,400580342051807E-003	1,000000000000000E+000
5,1279360E-001	9,005487134852830E-003	1,000000000000000E+000
5,1592803E-001	1,080034179240780E-002	1,000000000000000E+000
5,1891595E-001	1,257415162980169E-002	1,000000000000000E+000
5,2196127E-001	1,446140309966792E-002	1,000000000000000E+000
5,2489722E-001	1,649356482507214E-002	1,000000000000000E+000
5,2789629E-001	1,858944827136598E-002	1,000000000000000E+000
5,3090495E-001	2,067398779963237E-002	1,000000000000000E+000
5,3390253E-001	2,282242391582123E-002	1,000000000000000E+000
5,3691190E-001	2,496581097256750E-002	1,000000000000000E+000
5,3994852E-001	2,698225413064748E-002	1,000000000000000E+000
5,4297572E-001	2,885005326256340E-002	1,000000000000000E+000
5,4592216E-001	3,070794424623866E-002	1,000000000000000E+000
5,4897290E-001	3,247828298256783E-002	1,000000000000000E+000
5,5194604E-001	3,451415844226802E-002	1,000000000000000E+000
5,5489975E-001	3,701110485513420E-002	1,000000000000000E+000
5,5790919E-001	4,022828019525049E-002	1,000000000000000E+000
5,6094277E-001	4,419228533027342E-002	1,000000000000000E+000
5,6394559E-001	4,916997392273292E-002	1,000000000000000E+000
5,6690603E-001	5,501549356445970E-002	1,000000000000000E+000
5,6989282E-001	6,214925078168299E-002	1,000000000000000E+000
5,7289785E-001	7,060458422680749E-002	1,000000000000000E+000
5,7593673E-001	7,958961939998810E-002	1,000000000000000E+000
5,7892686E-001	9,046047579078920E-002	1,000000000000000E+000
5,8189040E-001	1,020048543580655E-001	1,000000000000000E+000
5,8500689E-001	1,150217632976387E-001	1,000000000000000E+000
5,8805746E-001	1,287648855495243E-001	1,000000000000000E+000
5,9102631E-001	1,433030555147234E-001	1,000000000000000E+000
5,9395057E-001	1,589426278271839E-001	1,000000000000000E+000
5,9701711E-001	1,753954368447062E-001	1,000000000000000E+000
6,0003692E-001	1,946004505222769E-001	1,000000000000000E+000
6,0301644E-001	2,126732520725314E-001	1,000000000000000E+000
6,0607338E-001	2,335820936359247E-001	1,000000000000000E+000
6,0901558E-001	2,545101291472580E-001	1,000000000000000E+000
6,1203873E-001	2,780167393158282E-001	1,000000000000000E+000
6,1494696E-001	3,002828889190634E-001	1,000000000000000E+000
6,1804211E-001	3,250613823119136E-001	1,000000000000000E+000
6,2096220E-001	3,507309793167304E-001	1,000000000000000E+000
6,2401915E-001	3,778407566118447E-001	1,000000000000000E+000
6,2696040E-001	4,045258259565436E-001	1,000000000000000E+000
6,2999982E-001	4,364364029443983E-001	1,000000000000000E+000
6,3299787E-001	4,652602568336359E-001	1,000000000000000E+000
6,3605273E-001	4,950394487291465E-001	1,000000000000000E+000
6,3906270E-001	5,290480202187098E-001	1,000000000000000E+000
6,4204782E-001	5,624560093773268E-001	1,000000000000000E+000
6,4502728E-001	5,954242884276466E-001	1,000000000000000E+000
6,4800686E-001	6,330291457735076E-001	1,000000000000000E+000
6,5101391E-001	6,715228968973577E-001	1,000000000000000E+000
6,5399331E-001	7,106895038727110E-001	1,000000000000000E+000
6,5705115E-001	7,474855135231966E-001	1,000000000000000E+000
6,6003394E-001	7,882262483881209E-001	1,000000000000000E+000
6,6306549E-001	8,288645521144193E-001	1,000000000000000E+000
6,6602534E-001	8,737181151511066E-001	1,000000000000000E+000
6,6902864E-001	9,193721668047168E-001	1,000000000000000E+000
6,7200494E-001	9,626679038987902E-001	1,000000000000000E+000
6,7501092E-001	1,011119597868108E+000	1,000000000000000E+000
6,7801172E-001	1,057366821619254E+000	1,000000000000000E+000
6,8121409E-001	1,107964242633237E+000	1,000000000000000E+000
6,8423921E-001	1,159205536723407E+000	1,000000000000000E+000
6,8721128E-001	1,211942551281652E+000	1,000000000000000E+000
6,9024706E-001	1,259634995347323E+000	1,000000000000000E+000
6,9318295E-001	1,311464681182388E+000	1,000000000000000E+000
6,9622713E-001	1,367130017799250E+000	1,000000000000000E+000
6,9927037E-001	1,424596965152457E+000	1,000000000000000E+000
7,0218402E-001	1,475506390539962E+000	1,000000000000000E+000
7,0519847E-001	1,530856187541936E+000	1,000000000000000E+000
7,0823002E-001	1,588597592633736E+000	1,000000000000000E+000
7,1123070E-001	1,648624342112306E+000	1,000000000000000E+000
7,1421653E-001	1,706504316675296E+000	1,000000000000000E+000
7,1725971E-001	1,769301730590339E+000	1,000000000000000E+000
7,2019976E-001	1,828265347515909E+000	1,000000000000000E+000
7,2322279E-001	1,885295382567809E+000	1,000000000000000E+000
7,2622144E-001	1,945961619062080E+000	1,000000000000000E+000
7,2923064E-001	2,014104572148010E+000	1,000000000000000E+000
7,3219317E-001	2,084075913171110E+000	1,000000000000000E+000
7,3520863E-001	2,143953283594040E+000	1,000000000000000E+000
7,3824334E-001	2,206546805106331E+000	1,000000000000000E+000
7,4123508E-001	2,277615560537056E+000	1,000000000000000E+000
7,4421823E-001	2,336450526587942E+000	1,000000000000000E+000
7,4721253E-001	2,407478028228354E+000	1,000000000000000E+000
7,5021940E-001	2,466216042709299E+000	1,000000000000000E+000
7,5315452E-001	2,533636112450335E+000	1,000000000000000E+000
7,5621575E-001	2,605501851645599E+000	1,000000000000000E+000
7,5918251E-001	2,671247282781742E+000	1,000000000000000E+000
7,6222563E-001	2,742671180170134E+000	1,000000000000000E+000
7,6517010E-001	2,819225541318080E+000	1,000000000000000E+000
7,6821673E-001	2,880565529856497E+000	1,000000000000000E+000
7,7122986E-001	2,960632180849970E+000	1,000000000000000E+000
7,7421892E-001	3,029242264829120E+000	1,000000000000000E+000
7,7721608E-001	3,097147308600206E+000	1,000000000000000E+000
7,8019583E-001	3,167291202546544E+000	1,000000000000000E+000
7,8320187E-001	3,250849882964367E+000	1,000000000000000E+000
7,8620040E-001	3,328164811037021E+000	1,000000000000000E+000
7,8922874E-001	3,385351455704978E+000	1,000000000000000E+000
7,9225910E-001	3,471554657431682E+000	1,000000000000000E+000
7,9522592E-001	3,545628227749646E+000	1,000000000000000E+000
7,9817134E-001	3,624782426118053E+000	1,000000000000000E+000
8,0122304E-001	3,687774039314974E+000	1,000000000000000E+000
8,0422586E-001	3,764370316990110E+000	1,000000000000000E+000
8,0722547E-001	3,847417677678763E+000	1,000000000000000E+000
8,1012857E-001	3,924012056114726E+000	1,000000000000000E+000
8,1319618E-001	4,004167072863542E+000	1,000000000000000E+000
8,1623083E-001	4,065340654176921E+000	1,000000000000000E+000
8,1919223E-001	4,157397119298807E+000	1,000000000000000E+000
8,2219195E-001	4,241627728857949E+000	1,000000000000000E+000
8,2514906E-001	4,325635453504505E+000	1,000000000000000E+000
8,2820922E-001	4,399207981265320E+000	1,000000000000000E+000
8,3117908E-001	4,478842845173943E+000	1,000000000000000E+000
8,3420426E-001	4,560015596781625E+000	1,000000000000000E+000
8,3724093E-001	4,639493973921482E+000	1,000000000000000E+000
8,4023005E-001	4,720666303521099E+000	1,000000000000000E+000
8,4320015E-001	4,812842511383792E+000	1,000000000000000E+000
8,4617627E-001	4,888849808616996E+000	1,000000000000000E+000
8,4924698E-001	4,970261545611063E+000	1,000000000000000E+000
8,5222745E-001	5,052791986638553E+000	1,000000000000000E+000
8,5523999E-001	5,135520610274114E+000	1,000000000000000E+000
8,5820663E-001	5,222669080507988E+000	1,000000000000000E+000
8,6119860E-001	5,303916039102226E+000	1,000000000000000E+000
8,6414766E-001	5,392884258544093E+000	1,000000000000000E+000
8,6716110E-001	5,477000088242974E+000	1,000000000000000E+000
8,7023181E-001	5,554881733189660E+000	1,000000000000000E+000
8,7323999E-001	5,641419722008067E+000	1,000000000000000E+000
8,7621194E-001	5,714170833225950E+000	1,000000000000000E+000
8,7915850E-001	5,812156364727173E+000	1,000000000000000E+000
8,8215703E-001	5,885143542201916E+000	1,000000000000000E+000
8,8524586E-001	5,978913624202818E+000	1,000000000000000E+000
8,8820946E-001	6,050150715203230E+000	1,000000000000000E+000
8,9123565E-001	6,165422979970359E+000	1,000000000000000E+000
8,9419603E-001	6,229301587017488E+000	1,000000000000000E+000
8,9719677E-001	6,320756239347702E+000	1,000000000000000E+000
9,0012938E-001	6,418376137745369E+000	1,000000000000000E+000
9,0326285E-001	6,508104026114879E+000	1,000000000000000E+000
9,0622747E-001	6,570065881051711E+000	1,000000000000000E+000
9,0920281E-001	6,671881350868134E+000	1,000000000000000E+000
9,1221303E-001	6,764664478853462E+000	1,000000000000000E+000
9,1523480E-001	6,855233544259903E+000	1,000000000000000E+000
9,1823244E-001	6,929008409211974E+000	1,000000000000000E+000
9,2121184E-001	7,006232905685224E+000	1,000000000000000E+000
9,2425191E-001	7,096595764160171E+000	1,000000000000000E+000
9,2717719E-001	7,194971688007257E+000	1,000000000000000E+000
9,3018842E-001	7,281168296156011E+000	1,000000000000000E+000
9,3325400E-001	7,363678978143632E+000	1,000000000000000E+000
9,3626469E-001	7,455226728829473E+000	1,000000000000000E+000
9,3912053E-001	7,535081323244682E+000	1,000000000000000E+000
9,4220620E-001	7,612411237154930E+000	1,000000000000000E+000
9,4519669E-001	7,718558532662229E+000	1,000000000000000E+000
9,4818532E-001	7,793891149989051E+000	1,000000000000000E+000
9,5126557E-001	7,889085077982642E+000	1,000000000000000E+000
9,5423460E-001	7,961629064734012E+000	1,000000000000000E+000
9,5721507E-001	8,050939375851399E+000	1,000000000000000E+000
9,6017754E-001	8,130635114821700E+000	1,000000000000000E+000
9,6319401E-001	8,211022373183809E+000	1,000000000000000E+000
9,6618426E-001	8,295600812518956E+000	1,000000000000000E+000
9,6914876E-001	8,380587859556499E+000	1,000000000000000E+000
9,7218239E-001	8,476218320885479E+000	1,000000000000000E+000
9,7522664E-001	8,572964724634858E+000	1,000000000000000E+000
9,7818482E-001	8,636404058492632E+000	1,000000000000000E+000
9,8123652E-001	8,719693093072785E+000	1,000000000000000E+000
9,8423934E-001	8,817809017810120E+000	1,000000000000000E+000
9,8717105E-001	8,881748291370293E+000	1,000000000000000E+000
9,9021745E-001	8,961180367099416E+000	1,000000000000000E+000
9,9324894E-001	9,045419707657778E+000	1,000000000000000E+000
9,9623907E-001	9,132787014283821E+000	1,000000000000000E+000
9,9919087E-001	9,216641679710278E+000	1,000000000000000E+000
9,9926209E-001	9,181013089526543E+000	1,000000000000000E+000
9,9624962E-001	9,074729272027156E+000	1,000000000000000E+000
9,9332750E-001	8,955924144407518E+000	1,000000000000000E+000
9,9034584E-001	8,807893949503821E+000	1,000000000000000E+000
9,8734623E-001	8,701502831479619E+000	1,000000000000000E+000
9,8431909E-001	8,586312518436074E+000	1,000000000000000E+000
9,8132783E-001	8,470176911002639E+000	1,000000000000000E+000
9,7832292E-001	8,350133660496482E+000	1,000000000000000E+000
9,7526801E-001	8,238787518066616E+000	1,000000000000000E+000
9,7226948E-001	8,130769673253393E+000	1,000000000000000E+000
9,6928471E-001	8,025132275087259E+000	1,000000000000000E+000
9,6626705E-001	7,898861584074126E+000	1,000000000000000E+000
9,6328843E-001	7,811482862003285E+000	1,000000000000000E+000
9,6026886E-001	7,698373975329417E+000	1,000000000000000E+000
9,5731276E-001	7,596443207153133E+000	1,000000000000000E+000
9,5429814E-001	7,494909542603509E+000	1,000000000000000E+000
9,5131344E-001	7,399407275342071E+000	1,000000000000000E+000
9,4831371E-001	7,315035480558208E+000	1,000000000000000E+000
9,4533443E-001	7,196013436746681E+000	1,000000000000000E+000
9,4228154E-001	7,102414024524926E+000	1,000000000000000E+000
9,3927664E-001	7,013449816746999E+000	1,000000000000000E+000
9,3636680E-001	6,909188813731781E+000	1,000000000000000E+000
9,3328375E-001	6,820645684152495E+000	1,000000000000000E+000
9,3033075E-001	6,712285210621332E+000	1,000000000000000E+000
9,2728978E-001	6,629148846513296E+000	1,000000000000000E+000
9,2426562E-001	6,535935442531454E+000	1,000000000000000E+000
9,2122567E-001	6,452759318340910E+000	1,000000000000000E+000
9,1830361E-001	6,359468054676832E+000	1,000000000000000E+000
9,1527522E-001	6,274675171053616E+000	1,000000000000000E+000
9,1234994E-001	6,180883686220824E+000	1,000000000000000E+000
9,0931314E-001	6,111216039918443E+000	1,000000000000000E+000
9,0629768E-001	6,002977590070287E+000	1,000000000000000E+000
9,0333503E-001	5,931705209437126E+000	1,000000000000000E+000
9,0033978E-001	5,835280702430396E+000	1,000000000000000E+000
8,9729548E-001	5,750456687206579E+000	1,000000000000000E+000
8,9432657E-001	5,667615141221148E+000	1,000000000000000E+000
8,9128870E-001	5,577627153826393E+000	1,000000000000000E+000
8,8830078E-001	5,501123589824644E+000	1,000000000000000E+000
8,8529158E-001	5,411894341681530E+000	1,000000000000000E+000
8,8226551E-001	5,334805832360615E+000	1,000000000000000E+000
8,7928069E-001	5,259148731320892E+000	1,000000000000000E+000
8,7630957E-001	5,174099994928923E+000	1,000000000000000E+000
8,7326759E-001	5,085109155160502E+000	1,000000000000000E+000
8,7028170E-001	5,001616065790941E+000	1,000000000000000E+000
8,6726081E-001	4,924222857435801E+000	1,000000000000000E+000
8,6421663E-001	4,839806047730708E+000	1,000000000000000E+000
8,6129284E-001	4,767630684196931E+000	1,000000000000000E+000
8,5829371E-001	4,679089523970132E+000	1,000000000000000E+000
8,5527390E-001	4,618719204888613E+000	1,000000000000000E+000
8,5228497E-001	4,543311146582790E+000	1,000000000000000E+000
8,4929484E-001	4,457660609632406E+000	1,000000000000000E+000
8,4626013E-001	4,398729815470926E+000	1,000000000000000E+000
8,4325320E-001	4,311776598709525E+000	1,000000000000000E+000
8,4029597E-001	4,240045963940695E+000	1,000000000000000E+000
8,3729839E-001	4,155791167972318E+000	1,000000000000000E+000
8,3428794E-001	4,083721681216218E+000	1,000000000000000E+000
8,3129805E-001	4,002615945679802E+000	1,000000000000000E+000
8,2830060E-001	3,938416919166279E+000	1,000000000000000E+000
8,2526314E-001	3,861715080653444E+000	1,000000000000000E+000
8,2226413E-001	3,800114118559556E+000	1,000000000000000E+000
8,1931114E-001	3,719556130823626E+000	1,000000000000000E+000
8,1629771E-001	3,649114689893196E+000	1,000000000000000E+000
8,1330234E-001	3,585890424562422E+000	1,000000000000000E+000
8,1032813E-001	3,520305018373634E+000	1,000000000000000E+000
8,0727440E-001	3,461128079566805E+000	1,000000000000000E+000
8,0431300E-001	3,385296739350643E+000	1,000000000000000E+000
8,0127412E-001	3,310135450898386E+000	1,000000000000000E+000
7,9833484E-001	3,244987202271858E+000	1,000000000000000E+000
7,9532671E-001	3,181504397367945E+000	1,000000000000000E+000
7,9232180E-001	3,111331905755730E+000	1,000000000000000E+000
7,8925425E-001	3,033508224602862E+000	1,000000000000000E+000
7,8634155E-001	2,971766711092323E+000	1,000000000000000E+000
7,8328997E-001	2,907050449358906E+000	1,000000000000000E+000
7,8027016E-001	2,856466180511880E+000	1,000000000000000E+000
7,7729923E-001	2,787309521585357E+000	1,000000000000000E+000
7,7433884E-001	2,725078509170181E+000	1,000000000000000E+000
7,7130628E-001	2,658892916595718E+000	1,000000000000000E+000
7,6821780E-001	2,595915718853490E+000	1,000000000000000E+000
7,6531339E-001	2,532103084568410E+000	1,000000000000000E+000
7,6229995E-001	2,471667328118741E+000	1,000000000000000E+000
7,5929075E-001	2,413086924705965E+000	1,000000000000000E+000
7,5628686E-001	2,360884009609144E+000	1,000000000000000E+000
7,5336158E-001	2,287562688107251E+000	1,000000000000000E+000
7,5028300E-001	2,235058355426858E+000	1,000000000000000E+000
7,4728805E-001	2,170998524578788E+000	1,000000000000000E+000
7,4436259E-001	2,109869742373217E+000	1,000000000000000E+000
7,4129647E-001	2,058956792678686E+000	1,000000000000000E+000
7,3833251E-001	2,000998718685173E+000	1,000000000000000E+000
7,3527348E-001	1,942525638204044E+000	1,000000000000000E+000
7,3232055E-001	1,882929017839110E+000	1,000000000000000E+000
7,2929221E-001	1,828228428875377E+000	1,000000000000000E+000
7,2623742E-001	1,773457457740157E+000	1,000000000000000E+000
7,2333115E-001	1,724400840040779E+000	1,000000000000000E+000
7,2034216E-001	1,667117759788120E+000	1,000000000000000E+000
7,1731699E-001	1,619315160527115E+000	1,000000000000000E+000
7,1431100E-001	1,564754738829303E+000	1,000000000000000E+000
7,1128166E-001	1,508433005453645E+000	1,000000000000000E+000
7,0831388E-001	1,458172197590947E+000	1,000000000000000E+000
7,0534289E-001	1,414340659891533E+000	1,000000000000000E+000
7,0234007E-001	1,355980873259961E+000	1,000000000000000E+000
6,9932443E-001	1,318383085256326E+000	1,000000000000000E+000
6,9639069E-001	1,266538404375993E+000	1,000000000000000E+000
6,9336134E-001	1,221225019831579E+000	1,000000000000000E+000
6,9028413E-001	1,172858947258688E+000	1,000000000000000E+000
6,8725801E-001	1,129011728562194E+000	1,000000000000000E+000
6,8431991E-001	1,084426264027286E+000	1,000000000000000E+000
6,8134475E-001	1,042373458595101E+000	1,000000000000000E+000
6,7832696E-001	1,001906976669757E+000	1,000000000000000E+000
6,7533904E-001	9,522343273017686E-001	1,000000000000000E+000
6,7234153E-001	9,139060041277958E-001	1,000000000000000E+000
6,6931319E-001	8,695921367393327E-001	1,000000000000000E+000
6,6631943E-001	8,330490097820347E-001	1,000000000000000E+000
6,6333514E-001	7,938753573430954E-001	1,000000000000000E+000
6,6030580E-001	7,599798088044327E-001	1,000000000000000E+000
6,5726793E-001	7,208117429505343E-001	1,000000000000000E+000
6,5428209E-001	6,842906592063205E-001	1,000000000000000E+000
6,5133876E-001	6,494530840331247E-001	1,000000000000000E+000
6,4824688E-001	6,136345659796927E-001	1,000000000000000E+000
6,4532560E-001	5,831012702853235E-001	1,000000000000000E+000
6,4233243E-001	5,475940803686772E-001	1,000000000000000E+000
6,3927329E-001	5,148939615128212E-001	1,000000000000000E+000
6,3629484E-001	4,890110694007115E-001	1,000000000000000E+000
6,3328779E-001	4,585355099104751E-001	1,000000000000000E+000
6,3012296E-001	4,293962613598321E-001	1,000000000000000E+000
6,2710482E-001	4,004584970016065E-001	1,000000000000000E+000
6,2412751E-001	3,723750436644728E-001	1,000000000000000E+000
6,2113947E-001	3,474894947649023E-001	1,000000000000000E+000
6,1807615E-001	3,220709477891273E-001	1,000000000000000E+000
6,1517203E-001	3,019277691406077E-001	1,000000000000000E+000
6,1213106E-001	2,772010203552298E-001	1,000000000000000E+000
6,0909843E-001	2,555921456740657E-001	1,000000000000000E+000
6,0610735E-001	2,355063139839004E-001	1,000000000000000E+000
6,0314161E-001	2,173188304055542E-001	1,000000000000000E+000
6,0014731E-001	1,972192008314386E-001	1,000000000000000E+000
5,9711480E-001	1,797762461547272E-001	1,000000000000000E+000
5,9410024E-001	1,630652260833554E-001	1,000000000000000E+000
5,9115803E-001	1,469562799319233E-001	1,000000000000000E+000
5,8809465E-001	1,321131277833631E-001	1,000000000000000E+000
5,8512259E-001	1,183496527067578E-001	1,000000000000000E+000
5,8211231E-001	1,060606122498400E-001	1,000000000000000E+000
5,7912332E-001	9,443519522157162E-002	1,000000000000000E+000
5,7608545E-001	8,340673736463422E-002	1,000000000000000E+000
5,7311445E-001	7,364972194344177E-002	1,000000000000000E+000
5,7011795E-001	6,376271861839755E-002	1,000000000000000E+000
5,6715232E-001	5,573228892052962E-002	1,000000000000000E+000
5,6413037E-001	4,830216667129156E-002	1,000000000000000E+000
5,6090885E-001	4,127479360181248E-002	1,000000000000000E+000
5,5790281E-001	3,531882174465126E-002	1,000000000000000E+000
5,5488622E-001	3,010159859839190E-002	1,000000000000000E+000
5,5189824E-001	2,550295657713736E-002	1,000000000000000E+000
5,4892725E-001	2,145136934029293E-002	1,000000000000000E+000
5,4596877E-001	1,779730813934684E-002	1,000000000000000E+000
5,4297686E-001	1,476533968165802E-002	1,000000000000000E+000
5,3990394E-001	1,214032388542244E-002	1,000000000000000E+000
5,3694052E-001	9,906804957180576E-003	1,000000000000000E+000
5,3388017E-001	8,011352972897262E-003	1,000000000000000E+000
5,3096652E-001	6,392486471061887E-003	1,000000000000000E+000
5,2794385E-001	5,037395165189792E-003	1,000000000000000E+000
5,2469230E-001	3,874416780183430E-003	1,000000000000000E+000
5,2164376E-001	2,957507731422540E-003	1,000000000000000E+000
5,1871407E-001	2,197823066037490E-003	1,000000000000000E+000
5,1576132E-001	1,599292773622737E-003	1,000000000000000E+000
5,1268524E-001	1,076193314031550E-003	1,000000000000000E+000
5,0969619E-001	6,499343417873809E-004	1,000000000000000E+000
5,0680166E-001	2,910969560374335E-004	1,000000000000000E+000
5,0381267E-001	6,054004140580806E-006	1,000000000000000E+000
5,0076312E-001	-2,706127190008688E-004	1,000000000000000E+000
4,9773270E-001	-4,805418554833171E-004	1,000000000000000E+000
4,9475747E-001	-6,804510898345099E-004	1,000000000000000E+000
4,9175680E-001	-8,564197461445079E-004	1,000000000000000E+000
4,8875818E-001	-1,029051802597387E-003	1,000000000000000E+000
4,8575538E-001	-1,206719462350032E-003	1,000000000000000E+000
4,8277694E-001	-1,380994048704370E-003	1,000000000000000E+000
4,7977409E-001	-1,573227888785989E-003	1,000000000000000E+000
4,7674260E-001	-1,752297662511629E-003	1,000000000000000E+000
4,7375253E-001	-1,982966419028235E-003	1,000000000000000E+000
4,7080597E-001	-2,241814248881551E-003	1,000000000000000E+000
4,6776173E-001	-2,546234556249815E-003	1,000000000000000E+000
4,6475467E-001	-2,914313578494032E-003	1,000000000000000E+000
4,6184739E-001	-3,401781537493785E-003	1,000000000000000E+000
4,5875433E-001	-4,016148077380544E-003	1,000000000000000E+000
4,5577911E-001	-4,854688370207555E-003	1,000000000000000E+000
4,5274442E-001	-5,957094944247719E-003	1,000000000000000E+000
4,4976714E-001	-7,445865957216330E-003	1,000000000000000E+000
4,4675156E-001	-9,281409705121604E-003	1,000000000000000E+000
4,4366801E-001	-1,153507306057827E-002	1,000000000000000E+000
4,4063336E-001	-1,389674347407732E-002	1,000000000000000E+000
4,3764111E-001	-1,614792679189422E-002	1,000000000000000E+000
4,3462342E-001	-1,805141570867694E-002	1,000000000000000E+000
4,3170342E-001	-1,920759736015437E-002	1,000000000000000E+000
4,2860079E-001	-1,925846313265234E-002	1,000000000000000E+000
4,2570290E-001	-1,822378516924117E-002	1,000000000000000E+000
4,2270020E-001	-1,648663920880971E-002	1,000000000000000E+000
4,1966555E-001	-1,449306930091693E-002	1,000000000000000E+000
4,1663092E-001	-1,248646775212373E-002	1,000000000000000E+000
4,1363123E-001	-1,046059159341570E-002	1,000000000000000E+000
4,1062525E-001	-8,686586172011582E-003	1,000000000000000E+000
4,0762347E-001	-7,184970769210236E-003	1,000000000000000E+000
4,0464187E-001	-6,021987129350734E-003	1,000000000000000E+000
4,0161461E-001	-5,156820235088108E-003	1,000000000000000E+000
3,9868826E-001	-4,520048371509825E-003	1,000000000000000E+000
3,9542422E-001	-3,847236217560807E-003	1,000000000000000E+000
3,9245963E-001	-3,456517634048785E-003	1,000000000000000E+000
3,8944086E-001	-3,134015416418924E-003	1,000000000000000E+000
3,8645077E-001	-2,918320619493917E-003	1,000000000000000E+000
3,8343313E-001	-2,696797421292210E-003	1,000000000000000E+000
3,8040265E-001	-2,497992721453438E-003	1,000000000000000E+000
3,7743169E-001	-2,354512189507944E-003	1,000000000000000E+000
3,7444797E-001	-2,209921441809919E-003	1,000000000000000E+000
3,7147275E-001	-2,092812371827880E-003	1,000000000000000E+000
3,6840302E-001	-2,029177258541532E-003	1,000000000000000E+000
3,6545756E-001	-1,939697814310741E-003	1,000000000000000E+000
3,6243242E-001	-1,861995240964330E-003	1,000000000000000E+000
3,5942852E-001	-1,820229664650170E-003	1,000000000000000E+000
3,5647666E-001	-1,769838090612482E-003	1,000000000000000E+000
3,5344833E-001	-1,709874773002332E-003	1,000000000000000E+000
3,5047102E-001	-1,679027758721127E-003	1,000000000000000E+000
3,4738222E-001	-1,650551599752668E-003	1,000000000000000E+000
3,4442079E-001	-1,610439696238065E-003	1,000000000000000E+000
3,4140202E-001	-1,581300913450344E-003	1,000000000000000E+000
3,3841619E-001	-1,550965672984503E-003	1,000000000000000E+000
3,3544311E-001	-1,536596758550363E-003	1,000000000000000E+000
3,3240628E-001	-1,523070328845983E-003	1,000000000000000E+000
3,2950217E-001	-1,484531094641845E-003	1,000000000000000E+000
3,2645372E-001	-1,458777337490601E-003	1,000000000000000E+000
3,2340181E-001	-1,459404571439818E-003	1,000000000000000E+000
3,2042894E-001	-1,416993512060070E-003	1,000000000000000E+000
3,1739640E-001	-1,410787467266804E-003	1,000000000000000E+000
3,1438729E-001	-1,399869718599046E-003	1,000000000000000E+000
3,1143957E-001	-1,359310587699147E-003	1,000000000000000E+000
3,0845800E-001	-1,330540487616001E-003	1,000000000000000E+000
3,0545223E-001	-1,314971952083773E-003	1,000000000000000E+000
3,0247146E-001	-1,279496336470638E-003	1,000000000000000E+000
2,9940277E-001	-1,260822785733091E-003	1,000000000000000E+000
2,9646260E-001	-1,236598248131012E-003	1,000000000000000E+000
2,9344067E-001	-1,165371590579105E-003	1,000000000000000E+000
2,9044318E-001	-1,142760180502796E-003	1,000000000000000E+000
2,8743184E-001	-1,111464111523848E-003	1,000000000000000E+000
2,8446615E-001	-1,067618168091278E-003	1,000000000000000E+000
2,8146231E-001	-1,011735860433493E-003	1,000000000000000E+000
2,7843291E-001	-9,938467985127668E-004	1,000000000000000E+000
2,7546936E-001	-9,159806407105040E-004	1,000000000000000E+000
2,7250373E-001	-8,968996309762101E-004	1,000000000000000E+000
2,6954973E-001	-8,511182724157927E-004	1,000000000000000E+000
2,6647151E-001	-7,959056368765927E-004	1,000000000000000E+000
2,6354834E-001	-7,477381355606647E-004	1,000000000000000E+000
2,6048493E-001	-6,911076727270649E-004	1,000000000000000E+000
2,5750127E-001	-6,293517175077279E-004	1,000000000000000E+000
2,5449950E-001	-5,984744761639285E-004	1,000000000000000E+000
2,5151259E-001	-5,670732733261737E-004	1,000000000000000E+000
2,4852464E-001	-5,098938059479386E-004	1,000000000000000E+000
2,4555048E-001	-4,861679734794958E-004	1,000000000000000E+000
2,4255934E-001	-4,416559416930942E-004	1,000000000000000E+000
2,3952679E-001	-4,035287835041871E-004	1,000000000000000E+000
2,3655157E-001	-3,528358353096769E-004	1,000000000000000E+000
2,3351157E-001	-3,477704277334564E-004	1,000000000000000E+000
2,3061703E-001	-3,130119310355425E-004	1,000000000000000E+000
2,2757068E-001	-2,943041364096956E-004	1,000000000000000E+000
2,2453494E-001	-2,742788043259161E-004	1,000000000000000E+000
2,2151172E-001	-2,746790667186735E-004	1,000000000000000E+000
2,1850275E-001	-2,589612931174871E-004	1,000000000000000E+000
2,1556257E-001	-2,596358571001385E-004	1,000000000000000E+000
2,1254824E-001	-2,670908089202973E-004	1,000000000000000E+000
2,0954630E-001	-2,919077306213153E-004	1,000000000000000E+000
2,0655303E-001	-3,026758454008236E-004	1,000000000000000E+000
2,0354009E-001	-3,128045985830059E-004	1,000000000000000E+000
2,0055798E-001	-3,309831644220157E-004	1,000000000000000E+000
1,9750313E-001	-3,872937293802454E-004	1,000000000000000E+000
1,9457251E-001	-3,983592235333056E-004	1,000000000000000E+000
1,9158880E-001	-4,815841217792041E-004	1,000000000000000E+000
1,8853183E-001	-4,943397184402776E-004	1,000000000000000E+000
1,8553217E-001	-5,322305342573702E-004	1,000000000000000E+000
1,8247838E-001	-6,138139297790136E-004	1,000000000000000E+000
1,7949891E-001	-6,423069759919509E-004	1,000000000000000E+000
1,7646955E-001	-6,817024939195504E-004	1,000000000000000E+000
1,7346779E-001	-7,361108079871302E-004	1,000000000000000E+000
1,7051274E-001	-7,814116314073423E-004	1,000000000000000E+000
1,6749187E-001	-8,119151727499704E-004	1,000000000000000E+000
1,6452301E-001	-8,660346140950161E-004	1,000000000000000E+000
1,6146605E-001	-8,839197676055860E-004	1,000000000000000E+000
1,5844941E-001	-9,200414904609530E-004	1,000000000000000E+000
1,5542534E-001	-9,664189224198681E-004	1,000000000000000E+000
1,5250853E-001	-9,979940575770979E-004	1,000000000000000E+000
1,4950570E-001	-1,010091168755934E-003	1,000000000000000E+000
1,4647844E-001	-1,048117517674820E-003	1,000000000000000E+000
1,4349793E-001	-1,048993747432576E-003	1,000000000000000E+000
1,4043351E-001	-1,064497771351312E-003	1,000000000000000E+000
1,3748802E-001	-1,090429750815736E-003	1,000000000000000E+000
1,3441299E-001	-1,077892524690493E-003	1,000000000000000E+000
1,3145688E-001	-1,088760828549442E-003	1,000000000000000E+000
1,2848485E-001	-1,094539666155470E-003	1,000000000000000E+000
1,2543318E-001	-1,088966861016264E-003	1,000000000000000E+000
1,2245902E-001	-1,081816890864853E-003	1,000000000000000E+000
1,1945931E-001	-1,082606502696453E-003	1,000000000000000E+000
1,1646187E-001	-1,057690226318086E-003	1,000000000000000E+000
1,1342399E-001	-1,052079049143699E-003	1,000000000000000E+000
1,1045432E-001	-1,039325618331699E-003	1,000000000000000E+000
1,0742896E-001	-1,020750765086977E-003	1,000000000000000E+000
1,0446224E-001	-1,002652701275538E-003	1,000000000000000E+000
1,0147321E-001	-9,911473282206186E-004	1,000000000000000E+000
9,8467208E-002	-9,381328468953953E-004	1,000000000000000E+000
9,5446333E-002	-9,222210493401285E-004	1,000000000000000E+000
9,2513591E-002	-9,013789033541202E-004	1,000000000000000E+000
8,9499064E-002	-8,312293540255061E-004	1,000000000000000E+000
8,6481385E-002	-8,233180405631362E-004	1,000000000000000E+000
8,3461568E-002	-8,008413749687974E-004	1,000000000000000E+000
8,0575541E-002	-7,441014375201005E-004	1,000000000000000E+000
7,7582270E-002	-6,946933474384085E-004	1,000000000000000E+000
7,4464768E-002	-6,778050440943296E-004	1,000000000000000E+000
7,1552195E-002	-6,396109400491137E-004	1,000000000000000E+000
6,8547241E-002	-5,944651936741450E-004	1,000000000000000E+000
6,5488137E-002	-5,553418413209348E-004	1,000000000000000E+000
6,2530972E-002	-5,087001678483923E-004	1,000000000000000E+000
5,9549388E-002	-4,790612335066214E-004	1,000000000000000E+000
5,6536999E-002	-4,675953090500055E-004	1,000000000000000E+000
5,3557530E-002	-4,033357831774088E-004	1,000000000000000E+000
5,0562140E-002	-4,116886879788869E-004	1,000000000000000E+000
4,7552947E-002	-4,019851238148305E-004	1,000000000000000E+000
4,4497024E-002	-3,811763956749420E-004	1,000000000000000E+000
4,1578081E-002	-3,780346684455942E-004	1,000000000000000E+000
3,8603924E-002	-3,727647158799114E-004	1,000000000000000E+000
3,5539515E-002	-3,867141354372038E-004	1,000000000000000E+000
3,2586589E-002	-4,048402451497283E-004	1,000000000000000E+000
2,9564654E-002	-4,344755336090095E-004	1,000000000000000E+000
2,6526419E-002	-4,723026262564486E-004	1,000000000000000E+000
2,3543075E-002	-5,216030809459885E-004	1,000000000000000E+000
2,0559363E-002	-5,556507312851466E-004	1,000000000000000E+000
1,7552173E-002	-6,309565038861119E-004	1,000000000000000E+000
1,4492122E-002	-6,805242953794345E-004	1,000000000000000E+000
1,1515843E-002	-7,276696339881114E-004	1,000000000000000E+000
8,5270284E-003	-7,700507142349190E-004	1,000000000000000E+000
5,4868292E-003	-8,516036955174625E-004	1,000000000000000E+000
2,5222290E-003	-8,928175625287560E-004	1,000000000000000E+000
-1,8541163E-004	-9,363370131444670E-004	1,000000000000000E+000
-2,0452439E-004	-9,228381275213065E-004	1,000000000000000E+000