File: fig_4_nife_ceo2/Activity_2_CV/Ni100_Activity_2_CV_2_02_CV_C01.txt
Ewe/V	<I>/mA	cycle number
-9,9356417E-005	-2,171758115291595E-001	1,000000000000000E+000
2,5307713E-003	-4,820437047523890E-002	1,000000000000000E+000
5,7459613E-003	-3,015869531290533E-002	1,000000000000000E+000
8,6617181E-003	-2,282450275570624E-002	1,000000000000000E+000
1,1649678E-002	-1,839367550063375E-002	1,000000000000000E+000
1,4687546E-002	-1,534637842747616E-002	1,000000000000000E+000
1,7634096E-002	-1,317498037264769E-002	1,000000000000000E+000
2,0645937E-002	-1,146674956122520E-002	1,000000000000000E+000
2,3660986E-002	-1,009328505079748E-002	1,000000000000000E+000
2,6622402E-002	-9,030446228428690E-003	1,000000000000000E+000
2,9685751E-002	-8,080015134326629E-003	1,000000000000000E+000
3,2676894E-002	-7,301296693639311E-003	1,000000000000000E+000
3,5633877E-002	-6,604227423427783E-003	1,000000000000000E+000
3,8661312E-002	-6,023142979628944E-003	1,000000000000000E+000
4,1725729E-002	-5,500544044529709E-003	1,000000000000000E+000
4,4665907E-002	-5,033073539083003E-003	1,000000000000000E+000
4,7809951E-002	-4,676881854017448E-003	1,000000000000000E+000
5,0765142E-002	-4,318135644625604E-003	1,000000000000000E+000
5,3789057E-002	-3,974217354894678E-003	1,000000000000000E+000
5,6797195E-002	-3,688840944481780E-003	1,000000000000000E+000
5,9804276E-002	-3,448251835428240E-003	1,000000000000000E+000
6,2718958E-002	-3,200766485083578E-003	1,000000000000000E+000
6,5787040E-002	-2,983005698760628E-003	1,000000000000000E+000
6,8726733E-002	-2,794928338287987E-003	1,000000000000000E+000
7,1789026E-002	-2,597938283281128E-003	1,000000000000000E+000
7,4755751E-002	-2,445822892419666E-003	1,000000000000000E+000
7,7759638E-002	-2,290722422508724E-003	1,000000000000000E+000
8,0696635E-002	-2,155940823525306E-003	1,000000000000000E+000
8,3670795E-002	-2,015165120771482E-003	1,000000000000000E+000
8,6744756E-002	-1,872814840255954E-003	1,000000000000000E+000
8,9719988E-002	-1,783421126736379E-003	1,000000000000000E+000
9,2758909E-002	-1,662340269138531E-003	1,000000000000000E+000
9,5724560E-002	-1,577493526921750E-003	1,000000000000000E+000
9,8716766E-002	-1,497984961935876E-003	1,000000000000000E+000
1,0177123E-001	-1,388887148139485E-003	1,000000000000000E+000
1,0474260E-001	-1,323131471454910E-003	1,000000000000000E+000
1,0770508E-001	-1,256991603119113E-003	1,000000000000000E+000
1,1068348E-001	-1,200037050456765E-003	1,000000000000000E+000
1,1373621E-001	-1,128378339752484E-003	1,000000000000000E+000
1,1670390E-001	-1,059970272333510E-003	1,000000000000000E+000
1,1969728E-001	-1,014476748990621E-003	1,000000000000000E+000
1,2269692E-001	-9,523609738017968E-004	1,000000000000000E+000
1,2571037E-001	-9,260460690612617E-004	1,000000000000000E+000
1,2867072E-001	-8,650408362841158E-004	1,000000000000000E+000
1,3172689E-001	-8,066372848687233E-004	1,000000000000000E+000
1,3471352E-001	-7,903031822405326E-004	1,000000000000000E+000
1,3768555E-001	-7,417402235601503E-004	1,000000000000000E+000
1,4070751E-001	-7,350540200412063E-004	1,000000000000000E+000
1,4371246E-001	-7,049783858074140E-004	1,000000000000000E+000
1,4670785E-001	-7,014213036523036E-004	1,000000000000000E+000
1,4968625E-001	-6,618747298580089E-004	1,000000000000000E+000
1,5264449E-001	-6,478879968621967E-004	1,000000000000000E+000
1,5568128E-001	-6,350836548292484E-004	1,000000000000000E+000
1,5867561E-001	-6,108247472491612E-004	1,000000000000000E+000
1,6166782E-001	-6,090453255064532E-004	1,000000000000000E+000
1,6468020E-001	-5,991511458522530E-004	1,000000000000000E+000
1,6767347E-001	-5,490454023662607E-004	1,000000000000000E+000
1,7069329E-001	-5,443087919313446E-004	1,000000000000000E+000
1,7365578E-001	-5,181416483977051E-004	1,000000000000000E+000
1,7659488E-001	-5,400238891444652E-004	1,000000000000000E+000
1,7967841E-001	-5,011077772683777E-004	1,000000000000000E+000
1,8266812E-001	-4,991612646048828E-004	1,000000000000000E+000
1,8564159E-001	-5,125913275586256E-004	1,000000000000000E+000
1,8861151E-001	-4,947749472470472E-004	1,000000000000000E+000
1,9165149E-001	-4,911923727205971E-004	1,000000000000000E+000
1,9464161E-001	-4,839331135399901E-004	1,000000000000000E+000
1,9761363E-001	-4,779974286660505E-004	1,000000000000000E+000
2,0058882E-001	-4,734696841872084E-004	1,000000000000000E+000
2,0363837E-001	-4,576866008724782E-004	1,000000000000000E+000
2,0662847E-001	-4,668078586941449E-004	1,000000000000000E+000
2,0962279E-001	-4,402580369814472E-004	1,000000000000000E+000
2,1259810E-001	-4,438503830078498E-004	1,000000000000000E+000
2,1559234E-001	-4,348844049844149E-004	1,000000000000000E+000
2,1858987E-001	-4,057790344153475E-004	1,000000000000000E+000
2,2159055E-001	-4,199284470997227E-004	1,000000000000000E+000
2,2463799E-001	-4,077105939833767E-004	1,000000000000000E+000
2,2758704E-001	-4,036286859318726E-004	1,000000000000000E+000
2,3064150E-001	-3,790614698733165E-004	1,000000000000000E+000
2,3361886E-001	-3,653756150599034E-004	1,000000000000000E+000
2,3659620E-001	-3,690884678971573E-004	1,000000000000000E+000
2,3962875E-001	-3,604586644531168E-004	1,000000000000000E+000
2,4264221E-001	-3,662546656629127E-004	1,000000000000000E+000
2,4561529E-001	-3,419975692724330E-004	1,000000000000000E+000
2,4860750E-001	-3,233993111465749E-004	1,000000000000000E+000
2,5165707E-001	-3,185907014555608E-004	1,000000000000000E+000
2,5457388E-001	-2,891958948857453E-004	1,000000000000000E+000
2,5762448E-001	-3,060427802789542E-004	1,000000000000000E+000
2,6059970E-001	-2,654783357744026E-004	1,000000000000000E+000
2,6358661E-001	-2,685109311562099E-004	1,000000000000000E+000
2,6664144E-001	-2,671373973280103E-004	1,000000000000000E+000
2,6954341E-001	-2,351079907337518E-004	1,000000000000000E+000
2,7263227E-001	-2,511587901297546E-004	1,000000000000000E+000
2,7562442E-001	-2,354691543629534E-004	1,000000000000000E+000
2,7858350E-001	-2,295930499713029E-004	1,000000000000000E+000
2,8156850E-001	-2,349743819442256E-004	1,000000000000000E+000
2,8463188E-001	-2,289139556789399E-004	1,000000000000000E+000
2,8759861E-001	-2,132344224411100E-004	1,000000000000000E+000
2,9060993E-001	-2,157497621476088E-004	1,000000000000000E+000
2,9361072E-001	-2,076986460086568E-004	1,000000000000000E+000
2,9659858E-001	-2,060510085103570E-004	1,000000000000000E+000
2,9957697E-001	-1,884633218625766E-004	1,000000000000000E+000
3,0260634E-001	-1,963910239089128E-004	1,000000000000000E+000
3,0561554E-001	-1,869820491740642E-004	1,000000000000000E+000
3,0857953E-001	-1,874372086499755E-004	1,000000000000000E+000
3,1162438E-001	-1,724283292642084E-004	1,000000000000000E+000
3,1463784E-001	-1,679957819420057E-004	1,000000000000000E+000
3,1760880E-001	-1,671962963784871E-004	1,000000000000000E+000
3,2054365E-001	-1,475083388630160E-004	1,000000000000000E+000
3,2357731E-001	-1,384397037414938E-004	1,000000000000000E+000
3,2660666E-001	-1,455740388111209E-004	1,000000000000000E+000
3,2962117E-001	-1,345286458787982E-004	1,000000000000000E+000
3,3257940E-001	-1,264258872701630E-004	1,000000000000000E+000
3,3559817E-001	-9,900921643530414E-005	1,000000000000000E+000
3,3857656E-001	-8,075539292808119E-005	1,000000000000000E+000
3,4160489E-001	-6,784184880066356E-005	1,000000000000000E+000
3,4458819E-001	-5,153829736619271E-005	1,000000000000000E+000
3,4760097E-001	-2,531997570326988E-005	1,000000000000000E+000
3,5063568E-001	1,934196170864222E-005	1,000000000000000E+000
3,5356206E-001	3,678578357629012E-005	1,000000000000000E+000
3,5661897E-001	5,827860036378856E-005	1,000000000000000E+000
3,5959914E-001	7,014615302733743E-005	1,000000000000000E+000
3,6261401E-001	1,003664553803066E-004	1,000000000000000E+000
3,6561364E-001	1,304591601028675E-004	1,000000000000000E+000
3,6860695E-001	1,690595284565772E-004	1,000000000000000E+000
3,7162676E-001	2,088192911424164E-004	1,000000000000000E+000
3,7460732E-001	2,046694559455647E-004	1,000000000000000E+000
3,7760273E-001	2,422008690508943E-004	1,000000000000000E+000
3,8062143E-001	2,660327318800633E-004	1,000000000000000E+000
3,8363805E-001	3,159661211462042E-004	1,000000000000000E+000
3,8666320E-001	3,211512477262670E-004	1,000000000000000E+000
3,8965145E-001	3,644558223209983E-004	1,000000000000000E+000
3,9264759E-001	3,687250515304625E-004	1,000000000000000E+000
3,9564934E-001	4,114183673733420E-004	1,000000000000000E+000
3,9864683E-001	4,444961158276261E-004	1,000000000000000E+000
4,0158281E-001	4,720314610925855E-004	1,000000000000000E+000
4,0465361E-001	5,027517961887352E-004	1,000000000000000E+000
4,0768078E-001	5,203211931090049E-004	1,000000000000000E+000
4,1062525E-001	5,329546808967300E-004	1,000000000000000E+000
4,1365677E-001	5,871090881059068E-004	1,000000000000000E+000
4,1665637E-001	6,115320325378697E-004	1,000000000000000E+000
4,1963485E-001	6,537076663823797E-004	1,000000000000000E+000
4,2265570E-001	6,821411104310276E-004	1,000000000000000E+000
4,2569038E-001	6,989045318289300E-004	1,000000000000000E+000
4,2862633E-001	7,583389500900907E-004	1,000000000000000E+000
4,3164715E-001	7,878832222884997E-004	1,000000000000000E+000
4,3469992E-001	8,349267061151175E-004	1,000000000000000E+000
4,3766984E-001	8,756958786741396E-004	1,000000000000000E+000
4,4064999E-001	9,297742336472938E-004	1,000000000000000E+000
4,4369566E-001	9,747630749370327E-004	1,000000000000000E+000
4,4666559E-001	1,038980980252194E-003	1,000000000000000E+000
4,4963542E-001	1,133418293984154E-003	1,000000000000000E+000
4,5268926E-001	1,215917765838806E-003	1,000000000000000E+000
4,5564312E-001	1,308310103786157E-003	1,000000000000000E+000
4,5866308E-001	1,425925630513092E-003	1,000000000000000E+000
4,6166265E-001	1,551771781591696E-003	1,000000000000000E+000
4,6469420E-001	1,704135562674417E-003	1,000000000000000E+000
4,6762800E-001	1,843648639977083E-003	1,000000000000000E+000
4,7068739E-001	2,045345499634726E-003	1,000000000000000E+000
4,7370899E-001	2,222395504406671E-003	1,000000000000000E+000
4,7665459E-001	2,438692905347616E-003	1,000000000000000E+000
4,7968283E-001	2,704131876186726E-003	1,000000000000000E+000
4,8267934E-001	2,959344205546194E-003	1,000000000000000E+000
4,8563153E-001	3,281414551391301E-003	1,000000000000000E+000
4,8868284E-001	3,639116950130895E-003	1,000000000000000E+000
4,9164742E-001	4,040221116255308E-003	1,000000000000000E+000
4,9476600E-001	4,512930225456575E-003	1,000000000000000E+000
4,9779433E-001	5,062221182056736E-003	1,000000000000000E+000
5,0069678E-001	5,714874878430892E-003	1,000000000000000E+000
5,0375217E-001	6,460917885708267E-003	1,000000000000000E+000
5,0672102E-001	7,369653104678825E-003	1,000000000000000E+000
5,0971854E-001	8,486025729451591E-003	1,000000000000000E+000
5,1271886E-001	9,876619625990846E-003	1,000000000000000E+000
5,1581025E-001	1,156993029132813E-002	1,000000000000000E+000
5,1880562E-001	1,360569371474385E-002	1,000000000000000E+000
5,2178997E-001	1,576255822920337E-002	1,000000000000000E+000
5,2480066E-001	1,799629437325357E-002	1,000000000000000E+000
5,2779597E-001	2,031994937489323E-002	1,000000000000000E+000
5,3077656E-001	2,282772714004461E-002	1,000000000000000E+000
5,3370613E-001	2,543836940700817E-002	1,000000000000000E+000
5,3682560E-001	2,810131463158427E-002	1,000000000000000E+000
5,3983176E-001	3,077277928710094E-002	1,000000000000000E+000
5,4278040E-001	3,331148957246557E-002	1,000000000000000E+000
5,4573441E-001	3,571176980917773E-002	1,000000000000000E+000
5,4875743E-001	3,798829763230201E-002	1,000000000000000E+000
5,5179131E-001	4,028958431759448E-002	1,000000000000000E+000
5,5476838E-001	4,272879370015181E-002	1,000000000000000E+000
5,5779457E-001	4,551432810379530E-002	1,000000000000000E+000
5,6079423E-001	4,904308811367553E-002	1,000000000000000E+000
5,6379694E-001	5,317876107838680E-002	1,000000000000000E+000
5,6680244E-001	5,804602977473727E-002	1,000000000000000E+000
5,6981230E-001	6,392268863160250E-002	1,000000000000000E+000
5,7275140E-001	7,025391643955600E-002	1,000000000000000E+000
5,7580298E-001	7,814296944776455E-002	1,000000000000000E+000
5,7878351E-001	8,644702202743981E-002	1,000000000000000E+000
5,8175778E-001	9,579790658380860E-002	1,000000000000000E+000
5,8479774E-001	1,061667989814847E-001	1,000000000000000E+000
5,8785677E-001	1,177686083726085E-001	1,000000000000000E+000
5,9086812E-001	1,292470645976760E-001	1,000000000000000E+000
5,9387732E-001	1,417941749528845E-001	1,000000000000000E+000
5,9681219E-001	1,554689090213233E-001	1,000000000000000E+000
5,9993285E-001	1,712776979815862E-001	1,000000000000000E+000
6,0288429E-001	1,870321680827516E-001	1,000000000000000E+000
6,0590774E-001	2,028446160151267E-001	1,000000000000000E+000
6,0884899E-001	2,206169996207870E-001	1,000000000000000E+000
6,1188048E-001	2,377523145260372E-001	1,000000000000000E+000
6,1489922E-001	2,570681498742875E-001	1,000000000000000E+000
6,1786819E-001	2,784953327734065E-001	1,000000000000000E+000
6,2090814E-001	3,009802682680036E-001	1,000000000000000E+000
6,2388122E-001	3,223550887630569E-001	1,000000000000000E+000
6,2685955E-001	3,490996808996263E-001	1,000000000000000E+000
6,2992084E-001	3,732551660667471E-001	1,000000000000000E+000
6,3287503E-001	4,006136474523130E-001	1,000000000000000E+000
6,3591689E-001	4,278537836643856E-001	1,000000000000000E+000
6,3885701E-001	4,582631704344706E-001	1,000000000000000E+000
6,4188117E-001	4,914596063167261E-001	1,000000000000000E+000
6,4489454E-001	5,239665308067583E-001	1,000000000000000E+000
6,4791858E-001	5,559503599925311E-001	1,000000000000000E+000
6,5091085E-001	5,980644158115132E-001	1,000000000000000E+000
6,5385741E-001	6,345871714938445E-001	1,000000000000000E+000
6,5689737E-001	6,773269957864905E-001	1,000000000000000E+000
6,5982902E-001	7,180722300132181E-001	1,000000000000000E+000
6,6285211E-001	7,691329925441366E-001	1,000000000000000E+000
6,6585386E-001	8,189675502749409E-001	1,000000000000000E+000
6,6888857E-001	8,652007605483518E-001	1,000000000000000E+000
6,7192429E-001	9,198565073649263E-001	1,000000000000000E+000
6,7485386E-001	9,770051949233007E-001	1,000000000000000E+000
6,7786825E-001	1,033834238669705E+000	1,000000000000000E+000
6,8093497E-001	1,102877155805427E+000	1,000000000000000E+000
6,8398404E-001	1,163751481551596E+000	1,000000000000000E+000
6,8697876E-001	1,229029809705523E+000	1,000000000000000E+000
6,8990195E-001	1,302049557672067E+000	1,000000000000000E+000
6,9301736E-001	1,373844517813049E+000	1,000000000000000E+000
6,9599682E-001	1,447801359538459E+000	1,000000000000000E+000
6,9893718E-001	1,524980495396573E+000	1,000000000000000E+000
7,0197701E-001	1,605751265338763E+000	1,000000000000000E+000
7,0498717E-001	1,691621746724291E+000	1,000000000000000E+000
7,0802510E-001	1,772698228557914E+000	1,000000000000000E+000
7,1093976E-001	1,868445103046177E+000	1,000000000000000E+000
7,1397060E-001	1,954570018670452E+000	1,000000000000000E+000
7,1697193E-001	2,043400933193091E+000	1,000000000000000E+000
7,2002047E-001	2,136203602277362E+000	1,000000000000000E+000
7,2297651E-001	2,240976374621699E+000	1,000000000000000E+000
7,2592098E-001	2,333154664795139E+000	1,000000000000000E+000
7,2899497E-001	2,429834347192932E+000	1,000000000000000E+000
7,3205084E-001	2,531621006915094E+000	1,000000000000000E+000
7,3496670E-001	2,648638491879927E+000	1,000000000000000E+000
7,3798972E-001	2,746734177630369E+000	1,000000000000000E+000
7,4100095E-001	2,859764626693160E+000	1,000000000000000E+000
7,4399948E-001	2,971157969885798E+000	1,000000000000000E+000
7,4697584E-001	3,077958998192194E+000	1,000000000000000E+000
7,4997348E-001	3,194702199010678E+000	1,000000000000000E+000
7,5298256E-001	3,304760898254347E+000	1,000000000000000E+000
7,5595456E-001	3,415599632999808E+000	1,000000000000000E+000
7,5899357E-001	3,538902215372417E+000	1,000000000000000E+000
7,6192939E-001	3,662755582777280E+000	1,000000000000000E+000
7,6498097E-001	3,779216775840846E+000	1,000000000000000E+000
7,6798922E-001	3,885129374137264E+000	1,000000000000000E+000
7,7097183E-001	4,021954393305734E+000	1,000000000000000E+000
7,7394927E-001	4,128651567834023E+000	1,000000000000000E+000
7,7692878E-001	4,278397146299845E+000	1,000000000000000E+000
7,7998579E-001	4,391924809992645E+000	1,000000000000000E+000
7,8297681E-001	4,527094980689128E+000	1,000000000000000E+000
7,8598285E-001	4,648088902539159E+000	1,000000000000000E+000
7,8897822E-001	4,788891337693689E+000	1,000000000000000E+000
7,9198736E-001	4,900442039784110E+000	1,000000000000000E+000
7,9497260E-001	5,046680416715869E+000	1,000000000000000E+000
7,9800469E-001	5,185841179826646E+000	1,000000000000000E+000
8,0097461E-001	5,294875192365136E+000	1,000000000000000E+000
8,0392760E-001	5,429119916290645E+000	1,000000000000000E+000
8,0697602E-001	5,579446074136769E+000	1,000000000000000E+000
8,1000644E-001	5,693230729659945E+000	1,000000000000000E+000
8,1297952E-001	5,860104243095776E+000	1,000000000000000E+000
8,1600583E-001	5,981106438097498E+000	1,000000000000000E+000
8,1897038E-001	6,112600511028688E+000	1,000000000000000E+000
8,2191801E-001	6,249478309028820E+000	1,000000000000000E+000
8,2498807E-001	6,402133685209407E+000	1,000000000000000E+000
8,2796931E-001	6,542080931652716E+000	1,000000000000000E+000
8,3095723E-001	6,676287931379562E+000	1,000000000000000E+000
8,3398348E-001	6,827006232914201E+000	1,000000000000000E+000
8,3694601E-001	6,978655014584120E+000	1,000000000000000E+000
8,3995515E-001	7,067385788204469E+000	1,000000000000000E+000
8,4294093E-001	7,249225115221927E+000	1,000000000000000E+000
8,4592587E-001	7,387615536210760E+000	1,000000000000000E+000
8,4900391E-001	7,515765905785699E+000	1,000000000000000E+000
8,5197914E-001	7,675834843631179E+000	1,000000000000000E+000
8,5496289E-001	7,797954483029528E+000	1,000000000000000E+000
8,5794878E-001	7,958515833429729E+000	1,000000000000000E+000
8,6096716E-001	8,118522358552212E+000	1,000000000000000E+000
8,6393523E-001	8,272927035888046E+000	1,000000000000000E+000
8,6690629E-001	8,395696810381210E+000	1,000000000000000E+000
8,7000561E-001	8,553969495353265E+000	1,000000000000000E+000
8,7298727E-001	8,686461562810337E+000	1,000000000000000E+000
8,7594563E-001	8,856320668225123E+000	1,000000000000000E+000
8,7900776E-001	8,986323410083358E+000	1,000000000000000E+000
8,8198942E-001	9,122601685475388E+000	1,000000000000000E+000
8,8496995E-001	9,318565459613694E+000	1,000000000000000E+000
8,8795358E-001	9,457427299752538E+000	1,000000000000000E+000
8,9093310E-001	9,616293786813458E+000	1,000000000000000E+000
8,9395922E-001	9,708659185168438E+000	1,000000000000000E+000
8,9698434E-001	9,872809691967092E+000	1,000000000000000E+000
8,9993310E-001	1,006792820655569E+001	1,000000000000000E+000
9,0297627E-001	1,022470957162430E+001	1,000000000000000E+000
9,0594232E-001	1,035754692616352E+001	1,000000000000000E+000
9,0899992E-001	1,053428108216414E+001	1,000000000000000E+000
9,1194123E-001	1,065323563085663E+001	1,000000000000000E+000
9,1492808E-001	1,085169694969717E+001	1,000000000000000E+000
9,1804981E-001	1,099896824826189E+001	1,000000000000000E+000
9,2101973E-001	1,111295181181688E+001	1,000000000000000E+000
9,2401826E-001	1,131622436446668E+001	1,000000000000000E+000
9,2702919E-001	1,145815897115915E+001	1,000000000000000E+000
9,3009728E-001	1,163011038762915E+001	1,000000000000000E+000
9,3301195E-001	1,172144941414561E+001	1,000000000000000E+000
9,3602115E-001	1,186267915361321E+001	1,000000000000000E+000
9,3903136E-001	1,197364291994751E+001	1,000000000000000E+000
9,4204897E-001	1,224863289432088E+001	1,000000000000000E+000
9,4505626E-001	1,244092932019102E+001	1,000000000000000E+000
9,4804734E-001	1,251686273011757E+001	1,000000000000000E+000
9,5107770E-001	1,268358535426005E+001	1,000000000000000E+000
9,5401365E-001	1,287638776926772E+001	1,000000000000000E+000
9,5704436E-001	1,297458060495271E+001	1,000000000000000E+000
9,6007669E-001	1,316905964096655E+001	1,000000000000000E+000
9,6303803E-001	1,334637706079724E+001	1,000000000000000E+000
9,6601009E-001	1,342456036630396E+001	1,000000000000000E+000
9,6903312E-001	1,361586061735005E+001	1,000000000000000E+000
9,7207570E-001	1,377285571340945E+001	1,000000000000000E+000
9,7506320E-001	1,385223263407516E+001	1,000000000000000E+000
9,7801828E-001	1,411941972800659E+001	1,000000000000000E+000
9,8108691E-001	1,425590709764133E+001	1,000000000000000E+000
9,8404610E-001	1,425500557482107E+001	1,000000000000000E+000
9,8707652E-001	1,451785872379942E+001	1,000000000000000E+000
9,9005616E-001	1,465965120105778E+001	1,000000000000000E+000
9,9301314E-001	1,464977897132599E+001	1,000000000000000E+000
9,9606597E-001	1,494389792607754E+001	1,000000000000000E+000
9,9906987E-001	1,509652298418567E+001	1,000000000000000E+000
9,9933958E-001	1,494034857977007E+001	1,000000000000000E+000
9,9633461E-001	1,479445011058897E+001	1,000000000000000E+000
9,9331069E-001	1,445792685262274E+001	1,000000000000000E+000
9,9034494E-001	1,424443267113496E+001	1,000000000000000E+000
9,8728150E-001	1,395590617948650E+001	1,000000000000000E+000
9,8429149E-001	1,373397882684824E+001	1,000000000000000E+000
9,8129714E-001	1,361182353218132E+001	1,000000000000000E+000
9,7829849E-001	1,336473047652214E+001	1,000000000000000E+000
9,7537541E-001	1,315759216603783E+001	1,000000000000000E+000
9,7233218E-001	1,292953556559792E+001	1,000000000000000E+000
9,6943337E-001	1,270318376504378E+001	1,000000000000000E+000
9,6633494E-001	1,256208092616254E+001	1,000000000000000E+000
9,6335357E-001	1,237856317451752E+001	1,000000000000000E+000
9,6029109E-001	1,220906602964646E+001	1,000000000000000E+000
9,5734495E-001	1,200132971671957E+001	1,000000000000000E+000
9,5430249E-001	1,186794552402972E+001	1,000000000000000E+000
9,5136440E-001	1,167812622965327E+001	1,000000000000000E+000
9,4836479E-001	1,147196804321533E+001	1,000000000000000E+000
9,4534183E-001	1,132150710115621E+001	1,000000000000000E+000
9,4234306E-001	1,111091419921836E+001	1,000000000000000E+000
9,3931067E-001	1,092279896755069E+001	1,000000000000000E+000
9,3630785E-001	1,077988534672464E+001	1,000000000000000E+000
9,3328053E-001	1,063870067458578E+001	1,000000000000000E+000
9,3031287E-001	1,047779688137726E+001	1,000000000000000E+000
9,2733401E-001	1,024569810501521E+001	1,000000000000000E+000
9,2437184E-001	1,012454241162800E+001	1,000000000000000E+000
9,2129058E-001	9,925917954266509E+000	1,000000000000000E+000
9,1830677E-001	9,827546284785342E+000	1,000000000000000E+000
9,1535813E-001	9,671253375320489E+000	1,000000000000000E+000
9,1230333E-001	9,515311099842279E+000	1,000000000000000E+000
9,0930796E-001	9,350734867138669E+000	1,000000000000000E+000
9,0630186E-001	9,195020449404808E+000	1,000000000000000E+000
9,0329581E-001	8,996230071837143E+000	1,000000000000000E+000
9,0033329E-001	8,900118528647766E+000	1,000000000000000E+000
8,9734221E-001	8,753646067886407E+000	1,000000000000000E+000
8,9433295E-001	8,559875416782702E+000	1,000000000000000E+000
8,9133978E-001	8,397591897757451E+000	1,000000000000000E+000
8,8830411E-001	8,312308430536497E+000	1,000000000000000E+000
8,8537014E-001	8,119119493869448E+000	1,000000000000000E+000
8,8234299E-001	8,022614600234007E+000	1,000000000000000E+000
8,7933385E-001	7,866143662913331E+000	1,000000000000000E+000
8,7632686E-001	7,702172250413309E+000	1,000000000000000E+000
8,7336838E-001	7,613783343849272E+000	1,000000000000000E+000
8,7031782E-001	7,453775406965054E+000	1,000000000000000E+000
8,6736703E-001	7,271430836175270E+000	1,000000000000000E+000
8,6434841E-001	7,176390064478994E+000	1,000000000000000E+000
8,6138171E-001	7,022380246800481E+000	1,000000000000000E+000
8,5832351E-001	6,887847747121555E+000	1,000000000000000E+000
8,5533237E-001	6,734773992005373E+000	1,000000000000000E+000
8,5236466E-001	6,643847307583087E+000	1,000000000000000E+000
8,4928000E-001	6,512111533390950E+000	1,000000000000000E+000
8,4629929E-001	6,329211117059607E+000	1,000000000000000E+000
8,4336883E-001	6,264585644885244E+000	1,000000000000000E+000
8,4033322E-001	6,145500606724205E+000	1,000000000000000E+000
8,3731651E-001	6,019608325969074E+000	1,000000000000000E+000
8,3433175E-001	5,855734533632443E+000	1,000000000000000E+000
8,3134687E-001	5,755882640713459E+000	1,000000000000000E+000
8,2833141E-001	5,629772036152630E+000	1,000000000000000E+000
8,2533485E-001	5,484213954298141E+000	1,000000000000000E+000
8,2230133E-001	5,402464545874622E+000	1,000000000000000E+000
8,1932497E-001	5,260330090075392E+000	1,000000000000000E+000
8,1630361E-001	5,156174031674752E+000	1,000000000000000E+000
8,1334907E-001	5,047125870239459E+000	1,000000000000000E+000
8,1037599E-001	4,919519087996605E+000	1,000000000000000E+000
8,0740082E-001	4,807311384754925E+000	1,000000000000000E+000
8,0436826E-001	4,707663124651056E+000	1,000000000000000E+000
8,0131125E-001	4,589783825436442E+000	1,000000000000000E+000
7,9820538E-001	4,473044878771532E+000	1,000000000000000E+000
7,9518974E-001	4,366726463110311E+000	1,000000000000000E+000
7,9210103E-001	4,262029508276584E+000	1,000000000000000E+000
7,8916609E-001	4,131878760565165E+000	1,000000000000000E+000
7,8615695E-001	4,048401687319583E+000	1,000000000000000E+000
7,8316480E-001	3,912529338953703E+000	1,000000000000000E+000
7,8017139E-001	3,835060956063757E+000	1,000000000000000E+000
7,7718669E-001	3,723931920670317E+000	1,000000000000000E+000
7,7410001E-001	3,602932820447165E+000	1,000000000000000E+000
7,7119702E-001	3,518256073737376E+000	1,000000000000000E+000
7,6818782E-001	3,413449436020706E+000	1,000000000000000E+000
7,6513600E-001	3,316510048408574E+000	1,000000000000000E+000
7,6218742E-001	3,212189825585355E+000	1,000000000000000E+000
7,5915068E-001	3,105828682835011E+000	1,000000000000000E+000
7,5613511E-001	3,024890569839080E+000	1,000000000000000E+000
7,5315982E-001	2,911700407832939E+000	1,000000000000000E+000
7,5011861E-001	2,812866100477478E+000	1,000000000000000E+000
7,4722743E-001	2,739780605211010E+000	1,000000000000000E+000
7,4417043E-001	2,640665732662018E+000	1,000000000000000E+000
7,4114966E-001	2,550963154725751E+000	1,000000000000000E+000
7,3822433E-001	2,462178232566433E+000	1,000000000000000E+000
7,3517478E-001	2,376829134481965E+000	1,000000000000000E+000
7,3219854E-001	2,286014562443135E+000	1,000000000000000E+000
7,2916591E-001	2,201640150866671E+000	1,000000000000000E+000
7,2623110E-001	2,122862825892414E+000	1,000000000000000E+000
7,2313374E-001	2,041452896686232E+000	1,000000000000000E+000
7,2017866E-001	1,953456876381326E+000	1,000000000000000E+000
7,1719593E-001	1,889148223156826E+000	1,000000000000000E+000
7,1413487E-001	1,805927784348341E+000	1,000000000000000E+000
7,1116596E-001	1,720919037368702E+000	1,000000000000000E+000
7,0820343E-001	1,644891060027138E+000	1,000000000000000E+000
7,0526427E-001	1,582082825250360E+000	1,000000000000000E+000
7,0217127E-001	1,513423742747570E+000	1,000000000000000E+000
6,9921619E-001	1,442166567418231E+000	1,000000000000000E+000
6,9615287E-001	1,379267340690714E+000	1,000000000000000E+000
6,9317871E-001	1,315032011679379E+000	1,000000000000000E+000
6,9019926E-001	1,248875402226675E+000	1,000000000000000E+000
6,8718374E-001	1,187390818228939E+000	1,000000000000000E+000
6,8409675E-001	1,122288339365877E+000	1,000000000000000E+000
6,8114614E-001	1,070999371356707E+000	1,000000000000000E+000
6,7817414E-001	1,011216730352434E+000	1,000000000000000E+000
6,7516708E-001	9,609290015146748E-001	1,000000000000000E+000
6,7215151E-001	9,079347993595652E-001	1,000000000000000E+000
6,6917485E-001	8,574195909500926E-001	1,000000000000000E+000
6,6617346E-001	8,092358487229507E-001	1,000000000000000E+000
6,6316432E-001	7,635597292029725E-001	1,000000000000000E+000
6,6017950E-001	7,208011215235879E-001	1,000000000000000E+000
6,5721810E-001	6,775817241173359E-001	1,000000000000000E+000
6,5420675E-001	6,341336293445883E-001	1,000000000000000E+000
6,5118909E-001	5,977507895302199E-001	1,000000000000000E+000
6,4814693E-001	5,579838937701744E-001	1,000000000000000E+000
6,4523327E-001	5,228745898067113E-001	1,000000000000000E+000
6,4217633E-001	4,893058131864940E-001	1,000000000000000E+000
6,3920432E-001	4,583330230149620E-001	1,000000000000000E+000
6,3597214E-001	4,260264792460573E-001	1,000000000000000E+000
6,3295782E-001	3,971100958409526E-001	1,000000000000000E+000
6,2996113E-001	3,711043670013248E-001	1,000000000000000E+000
6,2698704E-001	3,455282480322899E-001	1,000000000000000E+000
6,2402672E-001	3,205223993256752E-001	1,000000000000000E+000
6,2094843E-001	2,961292248071417E-001	1,000000000000000E+000
6,1800492E-001	2,751987279907497E-001	1,000000000000000E+000
6,1497682E-001	2,529532006348312E-001	1,000000000000000E+000
6,1196965E-001	2,341159797102521E-001	1,000000000000000E+000
6,0901564E-001	2,158186767871180E-001	1,000000000000000E+000
6,0599905E-001	1,977906660630864E-001	1,000000000000000E+000
6,0296243E-001	1,800296903747858E-001	1,000000000000000E+000
5,9997433E-001	1,648397712932386E-001	1,000000000000000E+000
5,9700549E-001	1,497161507315075E-001	1,000000000000000E+000
5,9402281E-001	1,362062106827640E-001	1,000000000000000E+000
5,9104121E-001	1,226994545122952E-001	1,000000000000000E+000
5,8799911E-001	1,113109190825821E-001	1,000000000000000E+000
5,8497399E-001	1,004340327186450E-001	1,000000000000000E+000
5,8201253E-001	8,982696069896523E-002	1,000000000000000E+000
5,7897997E-001	8,002930139603262E-002	1,000000000000000E+000
5,7595706E-001	7,110258992265112E-002	1,000000000000000E+000
5,7297117E-001	6,328531980140739E-002	1,000000000000000E+000
5,6995344E-001	5,572211602913923E-002	1,000000000000000E+000
5,6692088E-001	4,915600104121265E-002	1,000000000000000E+000
5,6382889E-001	4,273789301446007E-002	1,000000000000000E+000
5,6088126E-001	3,746783110479956E-002	1,000000000000000E+000
5,5777436E-001	3,249515521011692E-002	1,000000000000000E+000
5,5477154E-001	2,842023127892856E-002	1,000000000000000E+000
5,5177087E-001	2,449603442051718E-002	1,000000000000000E+000
5,4874146E-001	2,128870992104531E-002	1,000000000000000E+000
5,4570150E-001	1,841946473002512E-002	1,000000000000000E+000
5,4279214E-001	1,592833513688072E-002	1,000000000000000E+000
5,3983599E-001	1,375906115285361E-002	1,000000000000000E+000
5,3683496E-001	1,191110789526634E-002	1,000000000000000E+000
5,3379637E-001	1,037906279432103E-002	1,000000000000000E+000
5,3072345E-001	9,011791169124962E-003	1,000000000000000E+000
5,2777475E-001	7,872877687322987E-003	1,000000000000000E+000
5,2478999E-001	6,922872796247627E-003	1,000000000000000E+000
5,2180529E-001	6,102356732139616E-003	1,000000000000000E+000
5,1880133E-001	5,404255763832706E-003	1,000000000000000E+000
5,1576358E-001	4,852636291585513E-003	1,000000000000000E+000
5,1269269E-001	4,035897472156103E-003	1,000000000000000E+000
5,0965911E-001	3,602696409569894E-003	1,000000000000000E+000
5,0660527E-001	3,232688909427402E-003	1,000000000000000E+000
5,0371712E-001	2,923982909536355E-003	1,000000000000000E+000
5,0068867E-001	2,595042338109621E-003	1,000000000000000E+000
4,9764353E-001	2,334264783894058E-003	1,000000000000000E+000
4,9467257E-001	2,075298397937492E-003	1,000000000000000E+000
4,9166551E-001	1,842686624987926E-003	1,000000000000000E+000
4,8866057E-001	1,616588304126965E-003	1,000000000000000E+000
4,8567069E-001	1,393163735222823E-003	1,000000000000000E+000
4,8267293E-001	1,157359947114080E-003	1,000000000000000E+000
4,7964889E-001	9,199086663780713E-004	1,000000000000000E+000
4,7669911E-001	6,625842032177316E-004	1,000000000000000E+000
4,7364956E-001	3,875040618877492E-004	1,000000000000000E+000
4,7071287E-001	8,073603255227618E-005	1,000000000000000E+000
4,6767369E-001	-2,998745449561179E-004	1,000000000000000E+000
4,6464109E-001	-7,064934361840133E-004	1,000000000000000E+000
4,6168289E-001	-1,241950581570648E-003	1,000000000000000E+000
4,5872042E-001	-1,875296357043439E-003	1,000000000000000E+000
4,5569178E-001	-2,703820803731735E-003	1,000000000000000E+000
4,5262340E-001	-3,781648663249010E-003	1,000000000000000E+000
4,4968116E-001	-5,221655737115569E-003	1,000000000000000E+000
4,4665602E-001	-7,068651679231704E-003	1,000000000000000E+000
4,4369251E-001	-9,269178739396221E-003	1,000000000000000E+000
4,4060043E-001	-1,160936844783314E-002	1,000000000000000E+000
4,3760505E-001	-1,398244146017422E-002	1,000000000000000E+000
4,3465108E-001	-1,591020457717419E-002	1,000000000000000E+000
4,3159199E-001	-1,690931976170972E-002	1,000000000000000E+000
4,2858705E-001	-1,678668123565918E-002	1,000000000000000E+000
4,2561820E-001	-1,566674206086462E-002	1,000000000000000E+000
4,2260894E-001	-1,390605234982367E-002	1,000000000000000E+000
4,1955563E-001	-1,171936330167014E-002	1,000000000000000E+000
4,1660541E-001	-9,492989327381574E-003	1,000000000000000E+000
4,1359308E-001	-7,544451578765182E-003	1,000000000000000E+000
4,1062316E-001	-6,106042109020396E-003	1,000000000000000E+000
4,0757465E-001	-5,070915323132530E-003	1,000000000000000E+000
4,0457320E-001	-4,329487695065357E-003	1,000000000000000E+000
4,0142247E-001	-3,599641764248249E-003	1,000000000000000E+000
3,9839202E-001	-3,139774862620341E-003	1,000000000000000E+000
3,9549428E-001	-2,809310827728697E-003	1,000000000000000E+000
3,9241078E-001	-2,527335266279226E-003	1,000000000000000E+000
3,8949487E-001	-2,302287083808426E-003	1,000000000000000E+000
3,8645616E-001	-2,077365748672972E-003	1,000000000000000E+000
3,8345230E-001	-1,913072428372506E-003	1,000000000000000E+000
3,8042396E-001	-1,794742381708618E-003	1,000000000000000E+000
3,7744555E-001	-1,649257585193404E-003	1,000000000000000E+000
3,7440553E-001	-1,562721183998774E-003	1,000000000000000E+000
3,7145901E-001	-1,462788954869829E-003	1,000000000000000E+000
3,6846998E-001	-1,379940645410753E-003	1,000000000000000E+000
3,6543104E-001	-1,341039815463504E-003	1,000000000000000E+000
3,6250362E-001	-1,252354383552116E-003	1,000000000000000E+000
3,5943708E-001	-1,234642242257600E-003	1,000000000000000E+000
3,5645652E-001	-1,172111274785014E-003	1,000000000000000E+000
3,5346115E-001	-1,105344020364918E-003	1,000000000000000E+000
3,5048062E-001	-1,065883801292048E-003	1,000000000000000E+000
3,4753403E-001	-1,019068194633837E-003	1,000000000000000E+000
3,4447709E-001	-9,986444832204063E-004	1,000000000000000E+000
3,4152734E-001	-9,657857273496114E-004	1,000000000000000E+000
3,3846340E-001	-9,075931625302886E-004	1,000000000000000E+000
3,3552596E-001	-9,023430998189100E-004	1,000000000000000E+000
3,3246687E-001	-8,615765230113887E-004	1,000000000000000E+000
3,2950968E-001	-8,581631111502216E-004	1,000000000000000E+000
3,2646435E-001	-8,265599107931130E-004	1,000000000000000E+000
3,2347441E-001	-8,094212625265225E-004	1,000000000000000E+000
3,2051712E-001	-7,972932301665361E-004	1,000000000000000E+000
3,1750369E-001	-7,602229039453681E-004	1,000000000000000E+000
3,1450617E-001	-7,622853929346238E-004	1,000000000000000E+000
3,1155750E-001	-7,296626062025238E-004	1,000000000000000E+000
3,0850878E-001	-7,236803874722322E-004	1,000000000000000E+000
3,0552107E-001	-7,177560245243009E-004	1,000000000000000E+000
3,0248109E-001	-7,044598869036956E-004	1,000000000000000E+000
2,9950795E-001	-6,922488184351776E-004	1,000000000000000E+000
2,9652745E-001	-6,841732523456336E-004	1,000000000000000E+000
2,9348958E-001	-6,767896837198062E-004	1,000000000000000E+000
2,9054409E-001	-6,495653499494804E-004	1,000000000000000E+000
2,8745526E-001	-6,568424944150665E-004	1,000000000000000E+000
2,8454164E-001	-6,431658493883637E-004	1,000000000000000E+000
2,8149313E-001	-6,456043456080597E-004	1,000000000000000E+000
2,7847970E-001	-6,484458005787218E-004	1,000000000000000E+000
2,7552250E-001	-6,404953693326353E-004	1,000000000000000E+000
2,7257806E-001	-6,339241417848904E-004	1,000000000000000E+000
2,6949987E-001	-6,394588301083855E-004	1,000000000000000E+000
2,6649490E-001	-6,343400325152125E-004	1,000000000000000E+000
2,6351863E-001	-6,301304595100754E-004	1,000000000000000E+000
2,6052326E-001	-6,237573243341810E-004	1,000000000000000E+000
2,5754911E-001	-6,400622842110612E-004	1,000000000000000E+000
2,5451866E-001	-6,221604448219630E-004	1,000000000000000E+000
2,5149566E-001	-6,303721047124025E-004	1,000000000000000E+000
2,4850452E-001	-6,298450363350569E-004	1,000000000000000E+000
2,4550913E-001	-6,277838802938092E-004	1,000000000000000E+000
2,4250957E-001	-6,255412087824075E-004	1,000000000000000E+000
2,3948224E-001	-6,167767130720444E-004	1,000000000000000E+000
2,3647727E-001	-6,332279221635383E-004	1,000000000000000E+000
2,3348613E-001	-6,197995503405733E-004	1,000000000000000E+000
2,3053004E-001	-6,264972501426984E-004	1,000000000000000E+000
2,2749507E-001	-6,208843994968309E-004	1,000000000000000E+000
2,2450419E-001	-6,332775045932958E-004	1,000000000000000E+000
2,2150454E-001	-6,275496567662378E-004	1,000000000000000E+000
2,1848050E-001	-6,484569904570726E-004	1,000000000000000E+000
2,1546386E-001	-6,465762086512103E-004	1,000000000000000E+000
2,1250837E-001	-6,497022872585141E-004	1,000000000000000E+000
2,0951766E-001	-6,737276973226482E-004	1,000000000000000E+000
2,0648831E-001	-6,967520498568146E-004	1,000000000000000E+000
2,0349291E-001	-7,084590547482227E-004	1,000000000000000E+000
2,0060156E-001	-7,376270769780431E-004	1,000000000000000E+000
1,9749574E-001	-7,468995240959087E-004	1,000000000000000E+000
1,9449930E-001	-7,852467667471674E-004	1,000000000000000E+000
1,9153574E-001	-8,226675187979864E-004	1,000000000000000E+000
1,8847242E-001	-8,630788952256434E-004	1,000000000000000E+000
1,8549082E-001	-8,837521065346212E-004	1,000000000000000E+000
1,8242958E-001	-9,109332265929294E-004	1,000000000000000E+000
1,7941934E-001	-9,615762776892835E-004	1,000000000000000E+000
1,7647278E-001	-9,994614274361040E-004	1,000000000000000E+000
1,7343493E-001	-1,037586923453574E-003	1,000000000000000E+000
1,7045014E-001	-1,084055537820547E-003	1,000000000000000E+000
1,6741653E-001	-1,115906787105367E-003	1,000000000000000E+000
1,6449970E-001	-1,153289200502136E-003	1,000000000000000E+000
1,6145776E-001	-1,197053689169687E-003	1,000000000000000E+000
1,5846643E-001	-1,238732131666549E-003	1,000000000000000E+000
1,5541370E-001	-1,276815195916103E-003	1,000000000000000E+000
1,5241620E-001	-1,290188304560028E-003	1,000000000000000E+000
1,4944522E-001	-1,327520479573066E-003	1,000000000000000E+000
1,4642650E-001	-1,360774062460797E-003	1,000000000000000E+000
1,4343213E-001	-1,375110177036475E-003	1,000000000000000E+000
1,4038259E-001	-1,383094431280978E-003	1,000000000000000E+000
1,3743497E-001	-1,391620226504343E-003	1,000000000000000E+000
1,3437374E-001	-1,385245118591125E-003	1,000000000000000E+000
1,3144177E-001	-1,388088084753472E-003	1,000000000000000E+000
1,2844242E-001	-1,358303770192543E-003	1,000000000000000E+000
1,2543324E-001	-1,345291755784111E-003	1,000000000000000E+000
1,2238261E-001	-1,333442763520775E-003	1,000000000000000E+000
1,1944032E-001	-1,315141359784049E-003	1,000000000000000E+000
1,1646616E-001	-1,305713456432531E-003	1,000000000000000E+000
1,1347288E-001	-1,253639794143006E-003	1,000000000000000E+000
1,1037982E-001	-1,214509932435165E-003	1,000000000000000E+000
1,0748104E-001	-1,203256112473489E-003	1,000000000000000E+000
1,0444742E-001	-1,154380619915348E-003	1,000000000000000E+000
1,0144671E-001	-1,145851795575536E-003	1,000000000000000E+000
9,8524585E-002	-1,086025293686472E-003	1,000000000000000E+000
9,5459118E-002	-1,047317972369128E-003	1,000000000000000E+000
9,2486024E-002	-1,017864360405085E-003	1,000000000000000E+000
8,9488499E-002	-9,798275894111119E-004	1,000000000000000E+000
8,6478241E-002	-9,718422359112997E-004	1,000000000000000E+000
8,3459489E-002	-9,200631879110232E-004	1,000000000000000E+000
8,0441102E-002	-8,739482049622193E-004	1,000000000000000E+000
7,7522859E-002	-8,624047693053232E-004	1,000000000000000E+000
7,4496672E-002	-8,085273193975465E-004	1,000000000000000E+000
7,1487471E-002	-7,878565847519409E-004	1,000000000000000E+000
6,8482518E-002	-7,347816191541419E-004	1,000000000000000E+000
6,5535836E-002	-7,019583023080787E-004	1,000000000000000E+000
6,2545888E-002	-6,913691426494242E-004	1,000000000000000E+000
5,9543058E-002	-6,523928539107454E-004	1,000000000000000E+000
5,6482892E-002	-6,318997908700049E-004	1,000000000000000E+000
5,3504489E-002	-6,032047671868108E-004	1,000000000000000E+000
5,0526764E-002	-6,011437445809335E-004	1,000000000000000E+000
4,7556177E-002	-5,667392916123863E-004	1,000000000000000E+000
4,4543792E-002	-5,588784535153785E-004	1,000000000000000E+000
4,1535661E-002	-5,601162428115897E-004	1,000000000000000E+000
3,8515843E-002	-5,385635774252827E-004	1,000000000000000E+000
3,5565048E-002	-5,665540237262926E-004	1,000000000000000E+000
3,2526117E-002	-5,496100085820260E-004	1,000000000000000E+000
2,9522231E-002	-5,547573483390515E-004	1,000000000000000E+000
2,6571432E-002	-5,734273988749015E-004	1,000000000000000E+000
2,3488970E-002	-5,875646422030846E-004	1,000000000000000E+000
2,0531802E-002	-6,000604082760912E-004	1,000000000000000E+000
1,7531099E-002	-6,420879095528215E-004	1,000000000000000E+000
1,4543140E-002	-6,773349090582678E-004	1,000000000000000E+000
1,1555178E-002	-6,860991143226216E-004	1,000000000000000E+000
8,5364236E-003	-7,203069199640828E-004	1,000000000000000E+000
5,5420925E-003	-7,536585065089745E-004	1,000000000000000E+000
2,5360805E-003	-7,722036529242884E-004	1,000000000000000E+000
3,4432916E-005	-8,097441619908333E-004	1,000000000000000E+000
-4,2018131E-005	-8,612448690851759E-004	1,000000000000000E+000