File: fig_4_nife_ceo2/Activity_2_CV/Ni10Fe90_Activity_2_CV2_02_CV_C01.txt
Ewe/V	<I>/mA	cycle number
2,6746525E-004	-4,480707943439484E-001	1,000000000000000E+000
2,9294475E-003	-3,290286988533114E-002	1,000000000000000E+000
5,9849862E-003	-1,672458968142132E-002	1,000000000000000E+000
8,9510269E-003	-1,155012063911742E-002	1,000000000000000E+000
1,1922000E-002	-8,937964304572076E-003	1,000000000000000E+000
1,4997031E-002	-7,212823416030384E-003	1,000000000000000E+000
1,7957382E-002	-6,053807998122052E-003	1,000000000000000E+000
2,0975126E-002	-5,195065845595434E-003	1,000000000000000E+000
2,3975777E-002	-4,541206203230574E-003	1,000000000000000E+000
2,7190968E-002	-3,966076842885656E-003	1,000000000000000E+000
3,0206535E-002	-3,544455959924656E-003	1,000000000000000E+000
3,3165824E-002	-3,184203909916750E-003	1,000000000000000E+000
3,6209006E-002	-2,885764600883842E-003	1,000000000000000E+000
3,9175730E-002	-2,633705111223128E-003	1,000000000000000E+000
4,2212531E-002	-2,399643182505319E-003	1,000000000000000E+000
4,5199435E-002	-2,200741053947863E-003	1,000000000000000E+000
4,8175715E-002	-2,020756070643465E-003	1,000000000000000E+000
5,1159427E-002	-1,863704131979647E-003	1,000000000000000E+000
5,4177117E-002	-1,707597205678951E-003	1,000000000000000E+000
5,7193629E-002	-1,584949295076094E-003	1,000000000000000E+000
6,0176395E-002	-1,467736264811670E-003	1,000000000000000E+000
6,3162237E-002	-1,362107120313541E-003	1,000000000000000E+000
6,6199034E-002	-1,266969929455132E-003	1,000000000000000E+000
6,9172136E-002	-1,170958165719712E-003	1,000000000000000E+000
7,2195493E-002	-1,093145719636800E-003	1,000000000000000E+000
7,5214960E-002	-1,019672506767429E-003	1,000000000000000E+000
7,8165747E-002	-9,445544764649129E-004	1,000000000000000E+000
8,1189819E-002	-8,838285857502327E-004	1,000000000000000E+000
8,4144853E-002	-8,126174140841765E-004	1,000000000000000E+000
8,7169982E-002	-7,702496099384337E-004	1,000000000000000E+000
9,0123974E-002	-7,188673258299201E-004	1,000000000000000E+000
9,3187310E-002	-6,667266003791122E-004	1,000000000000000E+000
9,6165724E-002	-6,400967671726567E-004	1,000000000000000E+000
9,9113315E-002	-5,926684632686797E-004	1,000000000000000E+000
1,0213527E-001	-5,601302177070848E-004	1,000000000000000E+000
1,0514022E-001	-5,156492599409090E-004	1,000000000000000E+000
1,0814703E-001	-4,863764189253486E-004	1,000000000000000E+000
1,1115225E-001	-4,636962014094169E-004	1,000000000000000E+000
1,1415081E-001	-4,294352242305487E-004	1,000000000000000E+000
1,1710692E-001	-4,072079996551257E-004	1,000000000000000E+000
1,2018514E-001	-3,812999807051550E-004	1,000000000000000E+000
1,2314580E-001	-3,663599101185640E-004	1,000000000000000E+000
1,2615894E-001	-3,373059656123188E-004	1,000000000000000E+000
1,2921381E-001	-2,981712955409405E-004	1,000000000000000E+000
1,3212532E-001	-2,770401213052036E-004	1,000000000000000E+000
1,3512284E-001	-2,482221212561880E-004	1,000000000000000E+000
1,3814051E-001	-2,356421099495671E-004	1,000000000000000E+000
1,4115290E-001	-2,012193107668305E-004	1,000000000000000E+000
1,4415254E-001	-1,684313724831497E-004	1,000000000000000E+000
1,4713520E-001	-1,531037512813465E-004	1,000000000000000E+000
1,5016033E-001	-1,219722809827693E-004	1,000000000000000E+000
1,5316632E-001	-9,587522510268480E-005	1,000000000000000E+000
1,5613836E-001	-7,625738840317175E-005	1,000000000000000E+000
1,5912081E-001	-4,279834832348283E-005	1,000000000000000E+000
1,6213976E-001	-2,270605048203337E-005	1,000000000000000E+000
1,6516064E-001	9,555562449248381E-006	1,000000000000000E+000
1,6812739E-001	2,018215611689924E-005	1,000000000000000E+000
1,7116523E-001	6,072899662877529E-005	1,000000000000000E+000
1,7415042E-001	7,333300285110680E-005	1,000000000000000E+000
1,7710614E-001	9,950643445589700E-005	1,000000000000000E+000
1,8013656E-001	1,317538452359854E-004	1,000000000000000E+000
1,8311708E-001	1,421805112479056E-004	1,000000000000000E+000
1,8613583E-001	1,665888751630398E-004	1,000000000000000E+000
1,8916416E-001	1,800144072238831E-004	1,000000000000000E+000
1,9210327E-001	2,112572819026684E-004	1,000000000000000E+000
1,9511989E-001	2,320947732212314E-004	1,000000000000000E+000
1,9811316E-001	2,482031085143505E-004	1,000000000000000E+000
2,0117226E-001	2,712654909875082E-004	1,000000000000000E+000
2,0418252E-001	2,839520159769126E-004	1,000000000000000E+000
2,0713754E-001	3,004786585959675E-004	1,000000000000000E+000
2,1016130E-001	3,283166161412631E-004	1,000000000000000E+000
2,1317829E-001	3,437096988529922E-004	1,000000000000000E+000
2,1616620E-001	3,591536416625786E-004	1,000000000000000E+000
2,1914886E-001	3,725528786745202E-004	1,000000000000000E+000
2,2213894E-001	3,887891298043440E-004	1,000000000000000E+000
2,2513238E-001	4,099355108020555E-004	1,000000000000000E+000
2,2816905E-001	4,213231634405488E-004	1,000000000000000E+000
2,3113577E-001	4,335281682460237E-004	1,000000000000000E+000
2,3411947E-001	4,474255453117155E-004	1,000000000000000E+000
2,3713824E-001	4,631951185160984E-004	1,000000000000000E+000
2,4012086E-001	4,753942922085565E-004	1,000000000000000E+000
2,4317256E-001	4,925838054833463E-004	1,000000000000000E+000
2,4613822E-001	5,024501447925085E-004	1,000000000000000E+000
2,4911025E-001	5,046202764657209E-004	1,000000000000000E+000
2,5215125E-001	5,248762120112875E-004	1,000000000000000E+000
2,5516045E-001	5,254841994232788E-004	1,000000000000000E+000
2,5814104E-001	5,401605187810722E-004	1,000000000000000E+000
2,6118708E-001	5,443880035489283E-004	1,000000000000000E+000
2,6411799E-001	5,499318389877287E-004	1,000000000000000E+000
2,6714313E-001	5,512703680412888E-004	1,000000000000000E+000
2,7013531E-001	5,639410417503134E-004	1,000000000000000E+000
2,7311161E-001	5,691405308105944E-004	1,000000000000000E+000
2,7612969E-001	5,755781815924635E-004	1,000000000000000E+000
2,7913427E-001	5,826950498827952E-004	1,000000000000000E+000
2,8215513E-001	5,803630940296772E-004	1,000000000000000E+000
2,8518024E-001	5,914229599523965E-004	1,000000000000000E+000
2,8815654E-001	6,004307459104158E-004	1,000000000000000E+000
2,9115936E-001	6,067319858353718E-004	1,000000000000000E+000
2,9416323E-001	6,122304577869889E-004	1,000000000000000E+000
2,9718626E-001	6,221720959935549E-004	1,000000000000000E+000
3,0015722E-001	6,313774474805613E-004	1,000000000000000E+000
3,0320466E-001	6,345632124590314E-004	1,000000000000000E+000
3,0613315E-001	6,521041641071096E-004	1,000000000000000E+000
3,0915722E-001	6,529271967938132E-004	1,000000000000000E+000
3,1213650E-001	6,573580961143160E-004	1,000000000000000E+000
3,1518942E-001	6,797219920663075E-004	1,000000000000000E+000
3,1816253E-001	6,786619782022282E-004	1,000000000000000E+000
3,2119823E-001	6,912951722285524E-004	1,000000000000000E+000
3,2412353E-001	6,986505737017167E-004	1,000000000000000E+000
3,2713929E-001	7,053242410740342E-004	1,000000000000000E+000
3,3013025E-001	7,137947735510186E-004	1,000000000000000E+000
3,3316815E-001	7,194794579185658E-004	1,000000000000000E+000
3,3612743E-001	7,339757596412609E-004	1,000000000000000E+000
3,3910266E-001	7,426497407997390E-004	1,000000000000000E+000
3,4211186E-001	7,541874936809086E-004	1,000000000000000E+000
3,4516457E-001	7,582404977340938E-004	1,000000000000000E+000
3,4813765E-001	7,725553129568187E-004	1,000000000000000E+000
3,5119894E-001	7,806115568128602E-004	1,000000000000000E+000
3,5420918E-001	7,857277777972294E-004	1,000000000000000E+000
3,5712811E-001	7,991197199604672E-004	1,000000000000000E+000
3,6017129E-001	8,070149115341398E-004	1,000000000000000E+000
3,6315292E-001	8,173800099942757E-004	1,000000000000000E+000
3,6606440E-001	8,212148873563106E-004	1,000000000000000E+000
3,6912349E-001	8,315870859766476E-004	1,000000000000000E+000
3,7215927E-001	8,392565390349851E-004	1,000000000000000E+000
3,7509727E-001	8,579427684091544E-004	1,000000000000000E+000
3,7815776E-001	8,593954534169591E-004	1,000000000000000E+000
3,8114968E-001	8,631476785652039E-004	1,000000000000000E+000
3,8413766E-001	8,791845360966305E-004	1,000000000000000E+000
3,8712344E-001	8,852704728215970E-004	1,000000000000000E+000
3,9014432E-001	8,965655542521917E-004	1,000000000000000E+000
3,9315033E-001	9,131325976736958E-004	1,000000000000000E+000
3,9610007E-001	9,211112750204305E-004	1,000000000000000E+000
3,9912942E-001	9,295375977977152E-004	1,000000000000000E+000
4,0215138E-001	9,356630099502474E-004	1,000000000000000E+000
4,0515104E-001	9,478206448378414E-004	1,000000000000000E+000
4,0818995E-001	9,540754497580385E-004	1,000000000000000E+000
4,1111422E-001	9,669398552469670E-004	1,000000000000000E+000
4,1417500E-001	9,786783320286374E-004	1,000000000000000E+000
4,1715279E-001	9,928126998030966E-004	1,000000000000000E+000
4,2013755E-001	1,015766398750763E-003	1,000000000000000E+000
4,2314145E-001	1,035073889890508E-003	1,000000000000000E+000
4,2612520E-001	1,056428800863724E-003	1,000000000000000E+000
4,2916635E-001	1,093984954340788E-003	1,000000000000000E+000
4,3214566E-001	1,135507012342769E-003	1,000000000000000E+000
4,3516123E-001	1,191912770820446E-003	1,000000000000000E+000
4,3815449E-001	1,246234898912728E-003	1,000000000000000E+000
4,4111809E-001	1,312264141889577E-003	1,000000000000000E+000
4,4410071E-001	1,375519880509400E-003	1,000000000000000E+000
4,4711733E-001	1,465009082286065E-003	1,000000000000000E+000
4,5008937E-001	1,556432850386598E-003	1,000000000000000E+000
4,5308053E-001	1,630802244112176E-003	1,000000000000000E+000
4,5611304E-001	1,739170299484599E-003	1,000000000000000E+000
4,5907983E-001	1,812257280338563E-003	1,000000000000000E+000
4,6213248E-001	1,912828885143429E-003	1,000000000000000E+000
4,6511585E-001	2,019716740342833E-003	1,000000000000000E+000
4,6808612E-001	2,128071907911422E-003	1,000000000000000E+000
4,7108686E-001	2,269420076394327E-003	1,000000000000000E+000
4,7406104E-001	2,411876534777809E-003	1,000000000000000E+000
4,7711796E-001	2,625917029128722E-003	1,000000000000000E+000
4,8007628E-001	2,881852129212333E-003	1,000000000000000E+000
4,8308969E-001	3,214611203068943E-003	1,000000000000000E+000
4,8608717E-001	3,639809623407639E-003	1,000000000000000E+000
4,8906884E-001	4,156462230340538E-003	1,000000000000000E+000
4,9207163E-001	4,799082268493002E-003	1,000000000000000E+000
4,9504042E-001	5,597010603522939E-003	1,000000000000000E+000
4,9807620E-001	6,595828529244618E-003	1,000000000000000E+000
5,0109708E-001	7,862243051915255E-003	1,000000000000000E+000
5,0412941E-001	9,763433438776864E-003	1,000000000000000E+000
5,0720465E-001	1,228587661917074E-002	1,000000000000000E+000
5,1022762E-001	1,500984546324542E-002	1,000000000000000E+000
5,1319760E-001	1,779815394989936E-002	1,000000000000000E+000
5,1619893E-001	2,048094732149450E-002	1,000000000000000E+000
5,1922441E-001	2,291912896162152E-002	1,000000000000000E+000
5,2221245E-001	2,508590667236121E-002	1,000000000000000E+000
5,2524918E-001	2,688894525767965E-002	1,000000000000000E+000
5,2821279E-001	2,839176102684993E-002	1,000000000000000E+000
5,3122610E-001	2,956870650015830E-002	1,000000000000000E+000
5,3419501E-001	3,052903321949663E-002	1,000000000000000E+000
5,3723609E-001	3,128145275296434E-002	1,000000000000000E+000
5,4023254E-001	3,167147313423102E-002	1,000000000000000E+000
5,4317594E-001	3,171971446597972E-002	1,000000000000000E+000
5,4621488E-001	3,170826396130877E-002	1,000000000000000E+000
5,4917407E-001	3,170044265176397E-002	1,000000000000000E+000
5,5218762E-001	3,190003032083349E-002	1,000000000000000E+000
5,5517876E-001	3,251972124101965E-002	1,000000000000000E+000
5,5816352E-001	3,376282705284470E-002	1,000000000000000E+000
5,6123322E-001	3,567243452804780E-002	1,000000000000000E+000
5,6425625E-001	3,847164782809520E-002	1,000000000000000E+000
5,6719828E-001	4,212893086683267E-002	1,000000000000000E+000
5,7020134E-001	4,665171882705765E-002	1,000000000000000E+000
5,7322007E-001	5,222143565701609E-002	1,000000000000000E+000
5,7621765E-001	5,888551334499925E-002	1,000000000000000E+000
5,7915461E-001	6,656801580903360E-002	1,000000000000000E+000
5,8219570E-001	7,504211537327310E-002	1,000000000000000E+000
5,8521444E-001	8,535445270512865E-002	1,000000000000000E+000
5,8820879E-001	9,599750363025106E-002	1,000000000000000E+000
5,9123302E-001	1,084950682766683E-001	1,000000000000000E+000
5,9424514E-001	1,223271678565090E-001	1,000000000000000E+000
5,9729689E-001	1,376224867270963E-001	1,000000000000000E+000
6,0023385E-001	1,535793368075287E-001	1,000000000000000E+000
6,0333222E-001	1,714835141230024E-001	1,000000000000000E+000
6,0629159E-001	1,908704430200667E-001	1,000000000000000E+000
6,0926998E-001	2,121676100363072E-001	1,000000000000000E+000
6,1226428E-001	2,340769076343978E-001	1,000000000000000E+000
6,1529475E-001	2,587077058619407E-001	1,000000000000000E+000
6,1832404E-001	2,836460442311026E-001	1,000000000000000E+000
6,2126428E-001	3,117471383990145E-001	1,000000000000000E+000
6,2429678E-001	3,391714034973727E-001	1,000000000000000E+000
6,2726569E-001	3,728487893977039E-001	1,000000000000000E+000
6,3034075E-001	4,053127581629568E-001	1,000000000000000E+000
6,3332146E-001	4,399308796983044E-001	1,000000000000000E+000
6,3634425E-001	4,774575761546833E-001	1,000000000000000E+000
6,3928765E-001	5,170355326920548E-001	1,000000000000000E+000
6,4226818E-001	5,588755012994597E-001	1,000000000000000E+000
6,4528900E-001	6,034171477407870E-001	1,000000000000000E+000
6,4824408E-001	6,455472876104515E-001	1,000000000000000E+000
6,5129679E-001	6,953487047321616E-001	1,000000000000000E+000
6,5429324E-001	7,449990288521295E-001	1,000000000000000E+000
6,5728015E-001	7,999632620926338E-001	1,000000000000000E+000
6,6027552E-001	8,517267679005793E-001	1,000000000000000E+000
6,6334629E-001	9,080867634118954E-001	1,000000000000000E+000
6,6628236E-001	9,672125314791078E-001	1,000000000000000E+000
6,6926891E-001	1,029631248348074E+000	1,000000000000000E+000
6,7238319E-001	1,093779079194733E+000	1,000000000000000E+000
6,7553395E-001	1,163507333342113E+000	1,000000000000000E+000
6,7849314E-001	1,232129781061357E+000	1,000000000000000E+000
6,8151933E-001	1,302428473826173E+000	1,000000000000000E+000
6,8448180E-001	1,373625263221562E+000	1,000000000000000E+000
6,8756008E-001	1,449032394008505E+000	1,000000000000000E+000
6,9050026E-001	1,526404446341488E+000	1,000000000000000E+000
6,9346696E-001	1,602131431385907E+000	1,000000000000000E+000
6,9650906E-001	1,683336439248933E+000	1,000000000000000E+000
6,9944715E-001	1,767923883891026E+000	1,000000000000000E+000
7,0251369E-001	1,854088383027754E+000	1,000000000000000E+000
7,0554423E-001	1,938701189298804E+000	1,000000000000000E+000
7,0845991E-001	2,031771413711599E+000	1,000000000000000E+000
7,1147215E-001	2,117720150386663E+000	1,000000000000000E+000
7,1450478E-001	2,209171939142834E+000	1,000000000000000E+000
7,1749586E-001	2,308868138275844E+000	1,000000000000000E+000
7,2045618E-001	2,394429491367330E+000	1,000000000000000E+000
7,2350478E-001	2,491283098518707E+000	1,000000000000000E+000
7,2646624E-001	2,595055777469735E+000	1,000000000000000E+000
7,2945631E-001	2,693738300074536E+000	1,000000000000000E+000
7,3250163E-001	2,794709418180171E+000	1,000000000000000E+000
7,3548239E-001	2,898532934421780E+000	1,000000000000000E+000
7,3845512E-001	3,001198460928705E+000	1,000000000000000E+000
7,4153239E-001	3,115988128360286E+000	1,000000000000000E+000
7,4452245E-001	3,217907484730624E+000	1,000000000000000E+000
7,4743289E-001	3,332470173197813E+000	1,000000000000000E+000
7,5050265E-001	3,439747151941955E+000	1,000000000000000E+000
7,5345552E-001	3,549700119969806E+000	1,000000000000000E+000
7,5652921E-001	3,662430109270957E+000	1,000000000000000E+000
7,5945795E-001	3,775181162485723E+000	1,000000000000000E+000
7,6246297E-001	3,883663854901762E+000	1,000000000000000E+000
7,6543814E-001	3,999162054859312E+000	1,000000000000000E+000
7,6853335E-001	4,118758133243006E+000	1,000000000000000E+000
7,7146703E-001	4,234994727201311E+000	1,000000000000000E+000
7,7445829E-001	4,353192277742618E+000	1,000000000000000E+000
7,7751637E-001	4,475003137542537E+000	1,000000000000000E+000
7,8050750E-001	4,592203138941048E+000	1,000000000000000E+000
7,8348690E-001	4,708960898778045E+000	1,000000000000000E+000
7,8645259E-001	4,831893473097722E+000	1,000000000000000E+000
7,8947347E-001	4,954365767048621E+000	1,000000000000000E+000
7,9243696E-001	5,067963251822931E+000	1,000000000000000E+000
7,9547274E-001	5,194691233691714E+000	1,000000000000000E+000
7,9851061E-001	5,306097178671394E+000	1,000000000000000E+000
8,0147636E-001	5,444235747329500E+000	1,000000000000000E+000
8,0445999E-001	5,573487570699371E+000	1,000000000000000E+000
8,0749530E-001	5,691695135534445E+000	1,000000000000000E+000
8,1045938E-001	5,815441748824242E+000	1,000000000000000E+000
8,1348336E-001	5,940668612346892E+000	1,000000000000000E+000
8,1650525E-001	6,065358436972630E+000	1,000000000000000E+000
8,1943697E-001	6,194986564299398E+000	1,000000000000000E+000
8,2252753E-001	6,328571590598614E+000	1,000000000000000E+000
8,2540870E-001	6,451612197014768E+000	1,000000000000000E+000
8,2847518E-001	6,596750192834143E+000	1,000000000000000E+000
8,3145672E-001	6,716315405303959E+000	1,000000000000000E+000
8,3445960E-001	6,854456899860790E+000	1,000000000000000E+000
8,3746582E-001	6,980024364937119E+000	1,000000000000000E+000
8,4041858E-001	7,110985591973829E+000	1,000000000000000E+000
8,4345108E-001	7,241446259137987E+000	1,000000000000000E+000
8,4647197E-001	7,378263735041315E+000	1,000000000000000E+000
8,4949178E-001	7,517580699217831E+000	1,000000000000000E+000
8,5244262E-001	7,637243398812259E+000	1,000000000000000E+000
8,5546029E-001	7,767988162786772E+000	1,000000000000000E+000
8,5851723E-001	7,920629237109040E+000	1,000000000000000E+000
8,6150950E-001	8,052446215398717E+000	1,000000000000000E+000
8,6447525E-001	8,190819846259231E+000	1,000000000000000E+000
8,6751086E-001	8,330130850309160E+000	1,000000000000000E+000
8,7049991E-001	8,448245688968768E+000	1,000000000000000E+000
8,7352359E-001	8,604107184095227E+000	1,000000000000000E+000
8,7642598E-001	8,744138030711213E+000	1,000000000000000E+000
8,7943196E-001	8,885210228885384E+000	1,000000000000000E+000
8,8250804E-001	9,010876924475326E+000	1,000000000000000E+000
8,8545036E-001	9,173717634072403E+000	1,000000000000000E+000
8,8843745E-001	9,307045079076232E+000	1,000000000000000E+000
8,9145917E-001	9,446081794375999E+000	1,000000000000000E+000
8,9445984E-001	9,594614101848357E+000	1,000000000000000E+000
8,9752847E-001	9,722640961408622E+000	1,000000000000000E+000
9,0046132E-001	9,877362446044302E+000	1,000000000000000E+000
9,0342903E-001	1,002659692353402E+001	1,000000000000000E+000
9,0639144E-001	1,016287494428839E+001	1,000000000000000E+000
9,0945488E-001	1,030640009302401E+001	1,000000000000000E+000
9,1248733E-001	1,043257931219480E+001	1,000000000000000E+000
9,1554010E-001	1,058763187947994E+001	1,000000000000000E+000
9,1847920E-001	1,074012780257095E+001	1,000000000000000E+000
9,2142904E-001	1,087848663127341E+001	1,000000000000000E+000
9,2458981E-001	1,102316602913962E+001	1,000000000000000E+000
9,2765343E-001	1,120173020353397E+001	1,000000000000000E+000
9,3069452E-001	1,134260647961879E+001	1,000000000000000E+000
9,3365705E-001	1,149287218240652E+001	1,000000000000000E+000
9,3667042E-001	1,165078733391771E+001	1,000000000000000E+000
9,3963760E-001	1,177759462936167E+001	1,000000000000000E+000
9,4266534E-001	1,194384878245337E+001	1,000000000000000E+000
9,4567043E-001	1,209030080787718E+001	1,000000000000000E+000
9,4870502E-001	1,221631499036911E+001	1,000000000000000E+000
9,5167714E-001	1,237895552107813E+001	1,000000000000000E+000
9,5464498E-001	1,253971690007080E+001	1,000000000000000E+000
9,5769763E-001	1,265561961262675E+001	1,000000000000000E+000
9,6063739E-001	1,283730932544987E+001	1,000000000000000E+000
9,6365231E-001	1,297656983393932E+001	1,000000000000000E+000
9,6662217E-001	1,312930880017299E+001	1,000000000000000E+000
9,6965903E-001	1,328040833348854E+001	1,000000000000000E+000
9,7261512E-001	1,342198034168092E+001	1,000000000000000E+000
9,7568578E-001	1,355559907051125E+001	1,000000000000000E+000
9,7861761E-001	1,371276059402095E+001	1,000000000000000E+000
9,8165548E-001	1,386740453578443E+001	1,000000000000000E+000
9,8466784E-001	1,402757798057567E+001	1,000000000000000E+000
9,8767281E-001	1,412296240062136E+001	1,000000000000000E+000
9,9063087E-001	1,429957577096297E+001	1,000000000000000E+000
9,9360728E-001	1,443709981617204E+001	1,000000000000000E+000
9,9666107E-001	1,456249618868168E+001	1,000000000000000E+000
9,9949014E-001	1,472722305740623E+001	1,000000000000000E+000
9,9822623E-001	1,456039192330172E+001	1,000000000000000E+000
9,9526805E-001	1,438840451045911E+001	1,000000000000000E+000
9,9228323E-001	1,416713450379385E+001	1,000000000000000E+000
9,8923904E-001	1,391452751300238E+001	1,000000000000000E+000
9,8627651E-001	1,373652684648025E+001	1,000000000000000E+000
9,8322797E-001	1,355728682470200E+001	1,000000000000000E+000
9,8021042E-001	1,333690090676821E+001	1,000000000000000E+000
9,7727436E-001	1,316068977374346E+001	1,000000000000000E+000
9,7423869E-001	1,298164373176716E+001	1,000000000000000E+000
9,7123164E-001	1,279968837924013E+001	1,000000000000000E+000
9,6818262E-001	1,262256775978702E+001	1,000000000000000E+000
9,6525139E-001	1,241449940947990E+001	1,000000000000000E+000
9,6226877E-001	1,227249148332617E+001	1,000000000000000E+000
9,5918411E-001	1,207877879044091E+001	1,000000000000000E+000
9,5621002E-001	1,188038042647229E+001	1,000000000000000E+000
9,5331019E-001	1,176769781301894E+001	1,000000000000000E+000
9,5026487E-001	1,159877738086274E+001	1,000000000000000E+000
9,4728559E-001	1,141719866862312E+001	1,000000000000000E+000
9,4419551E-001	1,127028475556515E+001	1,000000000000000E+000
9,4121820E-001	1,107766984034825E+001	1,000000000000000E+000
9,3829608E-001	1,093091002322916E+001	1,000000000000000E+000
9,3524754E-001	1,076783688180569E+001	1,000000000000000E+000
9,3223208E-001	1,060324650511419E+001	1,000000000000000E+000
9,2924196E-001	1,045185883819656E+001	1,000000000000000E+000
9,2622632E-001	1,028774744177626E+001	1,000000000000000E+000
9,2321825E-001	1,015477489039746E+001	1,000000000000000E+000
9,2022496E-001	9,975983713151635E+000	1,000000000000000E+000
9,1725391E-001	9,848457299662819E+000	1,000000000000000E+000
9,1419488E-001	9,672454533258019E+000	1,000000000000000E+000
9,1129076E-001	9,525259318062496E+000	1,000000000000000E+000
9,0819246E-001	9,395229380687631E+000	1,000000000000000E+000
9,0523618E-001	9,255980507384102E+000	1,000000000000000E+000
9,0223980E-001	9,087008695280787E+000	1,000000000000000E+000
8,9929223E-001	8,956515288407026E+000	1,000000000000000E+000
8,9625150E-001	8,814048987470017E+000	1,000000000000000E+000
8,9318150E-001	8,666265582957244E+000	1,000000000000000E+000
8,9023596E-001	8,527623813641554E+000	1,000000000000000E+000
8,8724273E-001	8,388481142907480E+000	1,000000000000000E+000
8,8423878E-001	8,230028101646457E+000	1,000000000000000E+000
8,8119352E-001	8,101326884142228E+000	1,000000000000000E+000
8,7826717E-001	7,975540642227464E+000	1,000000000000000E+000
8,7526751E-001	7,842466990828825E+000	1,000000000000000E+000
8,7219989E-001	7,693370500997588E+000	1,000000000000000E+000
8,6923742E-001	7,550776950964316E+000	1,000000000000000E+000
8,6621827E-001	7,439312786389863E+000	1,000000000000000E+000
8,6316806E-001	7,304616834503733E+000	1,000000000000000E+000
8,6024487E-001	7,176895387251079E+000	1,000000000000000E+000
8,5727179E-001	7,043688308625017E+000	1,000000000000000E+000
8,5422230E-001	6,911453487313537E+000	1,000000000000000E+000
8,5130435E-001	6,790669048792118E+000	1,000000000000000E+000
8,4821445E-001	6,664425677317908E+000	1,000000000000000E+000
8,4520012E-001	6,542981039836015E+000	1,000000000000000E+000
8,4223956E-001	6,397257392976833E+000	1,000000000000000E+000
8,3926111E-001	6,300981914578109E+000	1,000000000000000E+000
8,3622545E-001	6,166497196402403E+000	1,000000000000000E+000
8,3326399E-001	6,049200368576351E+000	1,000000000000000E+000
8,3020377E-001	5,927589993626931E+000	1,000000000000000E+000
8,2725841E-001	5,803556203402906E+000	1,000000000000000E+000
8,2426828E-001	5,693783614302987E+000	1,000000000000000E+000
8,2122719E-001	5,576098326314877E+000	1,000000000000000E+000
8,1819993E-001	5,458906123123185E+000	1,000000000000000E+000
8,1525540E-001	5,341150429986754E+000	1,000000000000000E+000
8,1228775E-001	5,227214811847051E+000	1,000000000000000E+000
8,0923921E-001	5,105860750454930E+000	1,000000000000000E+000
8,0626506E-001	4,988701502921373E+000	1,000000000000000E+000
8,0327302E-001	4,884632185033958E+000	1,000000000000000E+000
8,0025303E-001	4,770369104483500E+000	1,000000000000000E+000
7,9725558E-001	4,665806695109325E+000	1,000000000000000E+000
7,9423904E-001	4,541826867631514E+000	1,000000000000000E+000
7,9118413E-001	4,443118496715613E+000	1,000000000000000E+000
7,8815579E-001	4,335517533343122E+000	1,000000000000000E+000
7,8518808E-001	4,227776558592481E+000	1,000000000000000E+000
7,8216082E-001	4,118525586836469E+000	1,000000000000000E+000
7,7919650E-001	4,020031557829185E+000	1,000000000000000E+000
7,7621359E-001	3,911006147020792E+000	1,000000000000000E+000
7,7320427E-001	3,795862135399219E+000	1,000000000000000E+000
7,7018666E-001	3,699087281582585E+000	1,000000000000000E+000
7,6717526E-001	3,600780844316731E+000	1,000000000000000E+000
7,6412445E-001	3,499118511859116E+000	1,000000000000000E+000
7,6115805E-001	3,402718392224003E+000	1,000000000000000E+000
7,5817430E-001	3,301024183394425E+000	1,000000000000000E+000
7,5514275E-001	3,204874558547473E+000	1,000000000000000E+000
7,5216544E-001	3,107184102137879E+000	1,000000000000000E+000
7,4916571E-001	3,012734800442011E+000	1,000000000000000E+000
7,4619585E-001	2,919368161078623E+000	1,000000000000000E+000
7,4313682E-001	2,820766796465620E+000	1,000000000000000E+000
7,4017859E-001	2,731229782222752E+000	1,000000000000000E+000
7,3720539E-001	2,638354543537380E+000	1,000000000000000E+000
7,3416853E-001	2,549870192413287E+000	1,000000000000000E+000
7,3117959E-001	2,464432177326032E+000	1,000000000000000E+000
7,2816318E-001	2,371997518365596E+000	1,000000000000000E+000
7,2513896E-001	2,284713573230100E+000	1,000000000000000E+000
7,2219032E-001	2,202878981524584E+000	1,000000000000000E+000
7,1920234E-001	2,117761908390492E+000	1,000000000000000E+000
7,1614212E-001	2,038875571842771E+000	1,000000000000000E+000
7,1321344E-001	1,957628931256608E+000	1,000000000000000E+000
7,1014076E-001	1,875915578923383E+000	1,000000000000000E+000
7,0720905E-001	1,800004761826571E+000	1,000000000000000E+000
7,0420718E-001	1,716484199727883E+000	1,000000000000000E+000
7,0119071E-001	1,644773652663037E+000	1,000000000000000E+000
6,9815493E-001	1,571489552428723E+000	1,000000000000000E+000
6,9522417E-001	1,500978288787703E+000	1,000000000000000E+000
6,9216979E-001	1,431401436213172E+000	1,000000000000000E+000
6,8918145E-001	1,363047590796026E+000	1,000000000000000E+000
6,8618077E-001	1,295966599440696E+000	1,000000000000000E+000
6,8321824E-001	1,229778289178264E+000	1,000000000000000E+000
6,8018252E-001	1,167892231016744E+000	1,000000000000000E+000
6,7718828E-001	1,104884046717572E+000	1,000000000000000E+000
6,7415035E-001	1,045720808436068E+000	1,000000000000000E+000
6,7118573E-001	9,878580343409062E-001	1,000000000000000E+000
6,6822964E-001	9,323793398533127E-001	1,000000000000000E+000
6,6520137E-001	8,756415371755644E-001	1,000000000000000E+000
6,6222298E-001	8,212622713239330E-001	1,000000000000000E+000
6,5924138E-001	7,729724379015614E-001	1,000000000000000E+000
6,5619183E-001	7,220454460977130E-001	1,000000000000000E+000
6,5320170E-001	6,752813056136677E-001	1,000000000000000E+000
6,5018827E-001	6,297333178927707E-001	1,000000000000000E+000
6,4718229E-001	5,875578109971844E-001	1,000000000000000E+000
6,4417833E-001	5,474025535390878E-001	1,000000000000000E+000
6,4122117E-001	5,074925388456586E-001	1,000000000000000E+000
6,3825661E-001	4,681327677207268E-001	1,000000000000000E+000
6,3509661E-001	4,338907133576706E-001	1,000000000000000E+000
6,3206190E-001	3,988257624217375E-001	1,000000000000000E+000
6,2910581E-001	3,662564694298562E-001	1,000000000000000E+000
6,2608403E-001	3,364747463837801E-001	1,000000000000000E+000
6,2305880E-001	3,061659116352882E-001	1,000000000000000E+000
6,2009311E-001	2,801210599151056E-001	1,000000000000000E+000
6,1709666E-001	2,542093014471272E-001	1,000000000000000E+000
6,1409384E-001	2,309032156113169E-001	1,000000000000000E+000
6,1102515E-001	2,098602903954045E-001	1,000000000000000E+000
6,0808069E-001	1,885486145782576E-001	1,000000000000000E+000
6,0505772E-001	1,696446129213802E-001	1,000000000000000E+000
6,0215044E-001	1,520466226535322E-001	1,000000000000000E+000
5,9907329E-001	1,357992545241178E-001	1,000000000000000E+000
5,9609491E-001	1,203141782956534E-001	1,000000000000000E+000
5,9313238E-001	1,072190363507068E-001	1,000000000000000E+000
5,9012002E-001	9,465616987173478E-002	1,000000000000000E+000
5,8710235E-001	8,311103186633406E-002	1,000000000000000E+000
5,8415794E-001	7,295285894687545E-002	1,000000000000000E+000
5,8109456E-001	6,381173356163777E-002	1,000000000000000E+000
5,7811618E-001	5,554269304099879E-002	1,000000000000000E+000
5,7507414E-001	4,844848218059361E-002	1,000000000000000E+000
5,7196504E-001	4,188962635487023E-002	1,000000000000000E+000
5,6895268E-001	3,620649793669972E-002	1,000000000000000E+000
5,6598592E-001	3,126521375349178E-002	1,000000000000000E+000
5,6301177E-001	2,696793433569178E-002	1,000000000000000E+000
5,6001955E-001	2,316111359421982E-002	1,000000000000000E+000
5,5696899E-001	1,991164360484199E-002	1,000000000000000E+000
5,5396509E-001	1,712139512456078E-002	1,000000000000000E+000
5,5101317E-001	1,475620893376103E-002	1,000000000000000E+000
5,4799765E-001	1,267179333770657E-002	1,000000000000000E+000
5,4497141E-001	1,090584744413142E-002	1,000000000000000E+000
5,4201531E-001	9,437976698240674E-003	1,000000000000000E+000
5,3900647E-001	8,169294984757408E-003	1,000000000000000E+000
5,3596085E-001	7,100664703964740E-003	1,000000000000000E+000
5,3299415E-001	6,212370659836056E-003	1,000000000000000E+000
5,2993184E-001	5,459885349863608E-003	1,000000000000000E+000
5,2682072E-001	4,707525890562600E-003	1,000000000000000E+000
5,2381003E-001	4,155957635014862E-003	1,000000000000000E+000
5,2076620E-001	3,700870535359661E-003	1,000000000000000E+000
5,1773465E-001	3,297447228525475E-003	1,000000000000000E+000
5,1476055E-001	2,952999870256278E-003	1,000000000000000E+000
5,1178002E-001	2,638778347623515E-003	1,000000000000000E+000
5,0882286E-001	2,365343267241415E-003	1,000000000000000E+000
5,0580204E-001	2,120800078603003E-003	1,000000000000000E+000
5,0280869E-001	1,895895843029020E-003	1,000000000000000E+000
4,9984625E-001	1,669294997645711E-003	1,000000000000000E+000
4,9679458E-001	1,458363876472274E-003	1,000000000000000E+000
4,9381191E-001	1,245336814842840E-003	1,000000000000000E+000
4,9081334E-001	1,047856757211942E-003	1,000000000000000E+000
4,8779172E-001	8,034518934300176E-004	1,000000000000000E+000
4,8481727E-001	5,576042502902401E-004	1,000000000000000E+000
4,8180380E-001	3,141369064010981E-004	1,000000000000000E+000
4,7881800E-001	4,888303936381624E-005	1,000000000000000E+000
4,7573870E-001	-2,785146103128689E-004	1,000000000000000E+000
4,7279611E-001	-6,544045581438826E-004	1,000000000000000E+000
4,6986151E-001	-1,082625216370526E-003	1,000000000000000E+000
4,6684381E-001	-1,611754269551771E-003	1,000000000000000E+000
4,6382821E-001	-2,281801152038299E-003	1,000000000000000E+000
4,6078506E-001	-3,133837346150177E-003	1,000000000000000E+000
4,5776951E-001	-4,235592363504112E-003	1,000000000000000E+000
4,5478258E-001	-5,621318190618337E-003	1,000000000000000E+000
4,5180529E-001	-7,257572148082855E-003	1,000000000000000E+000
4,4883114E-001	-9,149937631043326E-003	1,000000000000000E+000
4,4570616E-001	-1,106884759056753E-002	1,000000000000000E+000
4,4267997E-001	-1,323561817977803E-002	1,000000000000000E+000
4,3972388E-001	-1,528851914324095E-002	1,000000000000000E+000
4,3669480E-001	-1,714659918427047E-002	1,000000000000000E+000
4,3369806E-001	-1,858172209734359E-002	1,000000000000000E+000
4,3077168E-001	-1,921194727541015E-002	1,000000000000000E+000
4,2767438E-001	-1,899251713174076E-002	1,000000000000000E+000
4,2473525E-001	-1,806954668120470E-002	1,000000000000000E+000
4,2166930E-001	-1,672894004704378E-002	1,000000000000000E+000
4,1866907E-001	-1,493408174801494E-002	1,000000000000000E+000
4,1570660E-001	-1,282682778924082E-002	1,000000000000000E+000
4,1271010E-001	-1,059643861798351E-002	1,000000000000000E+000
4,0970835E-001	-8,659561880921721E-003	1,000000000000000E+000
4,0669918E-001	-7,106232682566119E-003	1,000000000000000E+000
4,0378657E-001	-5,920747438891288E-003	1,000000000000000E+000
4,0066272E-001	-5,054164695808988E-003	1,000000000000000E+000
3,9769921E-001	-4,409429156547454E-003	1,000000000000000E+000
3,9450943E-001	-3,841911049907110E-003	1,000000000000000E+000
3,9149597E-001	-3,502470687951182E-003	1,000000000000000E+000
3,8847622E-001	-3,222211755902189E-003	1,000000000000000E+000
3,8545141E-001	-2,998429274480262E-003	1,000000000000000E+000
3,8250983E-001	-2,827264527648234E-003	1,000000000000000E+000
3,7949109E-001	-2,686581776143841E-003	1,000000000000000E+000
3,7644258E-001	-2,573895000994135E-003	1,000000000000000E+000
3,7349710E-001	-2,468008069804460E-003	1,000000000000000E+000
3,7044075E-001	-2,387624910706699E-003	1,000000000000000E+000
3,6750847E-001	-2,313372916934008E-003	1,000000000000000E+000
3,6448336E-001	-2,254130957411761E-003	1,000000000000000E+000
3,6146033E-001	-2,197672184409548E-003	1,000000000000000E+000
3,5843626E-001	-2,142471962998690E-003	1,000000000000000E+000
3,5549399E-001	-2,105564536951009E-003	1,000000000000000E+000
3,5243595E-001	-2,060226163438302E-003	1,000000000000000E+000
3,4942392E-001	-2,012713792595369E-003	1,000000000000000E+000
3,4646851E-001	-1,973418450364986E-003	1,000000000000000E+000
3,4345081E-001	-1,948111467797952E-003	1,000000000000000E+000
3,4049788E-001	-1,902469070722657E-003	1,000000000000000E+000
3,3746320E-001	-1,866462586051360E-003	1,000000000000000E+000
3,3447850E-001	-1,823362823985757E-003	1,000000000000000E+000
3,3145329E-001	-1,787018613733929E-003	1,000000000000000E+000
3,2842180E-001	-1,753583155076663E-003	1,000000000000000E+000
3,2545084E-001	-1,707658948993308E-003	1,000000000000000E+000
3,2245973E-001	-1,673852680610010E-003	1,000000000000000E+000
3,1947768E-001	-1,624419859049875E-003	1,000000000000000E+000
3,1651247E-001	-1,590539620966967E-003	1,000000000000000E+000
3,1346607E-001	-1,564930461858162E-003	1,000000000000000E+000
3,1051847E-001	-1,509178021043719E-003	1,000000000000000E+000
3,0748060E-001	-1,489492404565550E-003	1,000000000000000E+000
3,0450326E-001	-1,447218884493520E-003	1,000000000000000E+000
3,0145156E-001	-1,406478873221935E-003	1,000000000000000E+000
2,9851714E-001	-1,372022858307811E-003	1,000000000000000E+000
2,9546186E-001	-1,320118109372303E-003	1,000000000000000E+000
2,9254717E-001	-1,281829983229080E-003	1,000000000000000E+000
2,8948593E-001	-1,233194977544117E-003	1,000000000000000E+000
2,8658295E-001	-1,204347790488416E-003	1,000000000000000E+000
2,8358665E-001	-1,159423871599164E-003	1,000000000000000E+000
2,8054750E-001	-1,121303062263863E-003	1,000000000000000E+000
2,7754575E-001	-1,092063060734241E-003	1,000000000000000E+000
2,7450895E-001	-1,050234435285825E-003	1,000000000000000E+000
2,7154645E-001	-1,026917821125155E-003	1,000000000000000E+000
2,6852518E-001	-9,950608009502409E-004	1,000000000000000E+000
2,6553658E-001	-9,597291368220268E-004	1,000000000000000E+000
2,6250294E-001	-9,585396682291474E-004	1,000000000000000E+000
2,5951818E-001	-9,346836401440545E-004	1,000000000000000E+000
2,5653130E-001	-9,168700919474195E-004	1,000000000000000E+000
2,5352848E-001	-9,105885350469438E-004	1,000000000000000E+000
2,5060314E-001	-8,973620271486684E-004	1,000000000000000E+000
2,4753769E-001	-8,872529964339976E-004	1,000000000000000E+000
2,4450621E-001	-8,770063967138983E-004	1,000000000000000E+000
2,4154477E-001	-8,777612583675369E-004	1,000000000000000E+000
2,3855789E-001	-8,899834622643384E-004	1,000000000000000E+000
2,3557734E-001	-8,882271527773256E-004	1,000000000000000E+000
2,3255324E-001	-8,800761029924657E-004	1,000000000000000E+000
2,2959718E-001	-9,041620910373201E-004	1,000000000000000E+000
2,2650728E-001	-9,157028305423467E-004	1,000000000000000E+000
2,2352038E-001	-9,264138413636984E-004	1,000000000000000E+000
2,2050589E-001	-9,370801616612572E-004	1,000000000000000E+000
2,1756463E-001	-9,606438359370875E-004	1,000000000000000E+000
2,1451615E-001	-9,775420131640012E-004	1,000000000000000E+000
2,1153136E-001	-9,885496630036659E-004	1,000000000000000E+000
2,0852536E-001	-1,014895829935504E-003	1,000000000000000E+000
2,0551403E-001	-1,034348142758531E-003	1,000000000000000E+000
2,0251016E-001	-1,058962670038852E-003	1,000000000000000E+000
1,9945636E-001	-1,074875361678967E-003	1,000000000000000E+000
1,9650662E-001	-1,084716733786734E-003	1,000000000000000E+000
1,9350275E-001	-1,124618684586499E-003	1,000000000000000E+000
1,9052753E-001	-1,125780254881066E-003	1,000000000000000E+000
1,8748434E-001	-1,162229431755148E-003	1,000000000000000E+000
1,8449745E-001	-1,161852970482679E-003	1,000000000000000E+000
1,8147425E-001	-1,169901568746079E-003	1,000000000000000E+000
1,7845465E-001	-1,186202193596574E-003	1,000000000000000E+000
1,7551765E-001	-1,201684503302498E-003	1,000000000000000E+000
1,7245217E-001	-1,223369167216546E-003	1,000000000000000E+000
1,6952792E-001	-1,216672621651874E-003	1,000000000000000E+000
1,6643344E-001	-1,227984319537517E-003	1,000000000000000E+000
1,6347449E-001	-1,233346550614856E-003	1,000000000000000E+000
1,6052793E-001	-1,236527607161947E-003	1,000000000000000E+000
1,5747200E-001	-1,246809924549716E-003	1,000000000000000E+000
1,5454669E-001	-1,246760696897135E-003	1,000000000000000E+000
1,5149926E-001	-1,130735420885515E-003	1,000000000000000E+000
1,4852406E-001	-1,285303265216741E-003	1,000000000000000E+000
1,4543416E-001	-1,306922324097813E-003	1,000000000000000E+000
1,4252371E-001	-1,311477609089621E-003	1,000000000000000E+000
1,3952196E-001	-1,311277194206536E-003	1,000000000000000E+000
1,3652335E-001	-1,309843961119555E-003	1,000000000000000E+000
1,3346745E-001	-1,322120213089854E-003	1,000000000000000E+000
1,3048589E-001	-1,331980579345152E-003	1,000000000000000E+000
1,2749153E-001	-1,317219684437215E-003	1,000000000000000E+000
1,2444305E-001	-1,282914040066127E-003	1,000000000000000E+000
1,2151880E-001	-1,330085810648872E-003	1,000000000000000E+000
1,1851808E-001	-1,322625824985803E-003	1,000000000000000E+000
1,1555523E-001	-1,320191981211669E-003	1,000000000000000E+000
1,1247315E-001	-1,282926620774295E-003	1,000000000000000E+000
1,0942255E-001	-1,303265590883023E-003	1,000000000000000E+000
1,0652166E-001	-1,306510881308036E-003	1,000000000000000E+000
1,0347422E-001	-1,283920864106246E-003	1,000000000000000E+000
1,0046183E-001	-1,269918516615633E-003	1,000000000000000E+000
9,7558826E-002	-1,279536719454282E-003	1,000000000000000E+000
9,4547503E-002	-1,273168591189024E-003	1,000000000000000E+000
9,1522381E-002	-1,271555523232076E-003	1,000000000000000E+000
8,8480271E-002	-1,280578452507864E-003	1,000000000000000E+000
8,5491247E-002	-1,273770696249135E-003	1,000000000000000E+000
8,2499035E-002	-1,275249617746775E-003	1,000000000000000E+000
7,9436868E-002	-1,275075453249241E-003	1,000000000000000E+000
7,6460473E-002	-1,272898426814910E-003	1,000000000000000E+000
7,3537283E-002	-1,269729699163516E-003	1,000000000000000E+000
7,0425078E-002	-1,265738521953832E-003	1,000000000000000E+000
6,7480661E-002	-1,264182657377658E-003	1,000000000000000E+000
6,4548723E-002	-1,271279878204266E-003	1,000000000000000E+000
6,1542962E-002	-1,274219510213325E-003	1,000000000000000E+000
5,8454130E-002	-1,268426670261983E-003	1,000000000000000E+000
5,5477846E-002	-1,271197427474806E-003	1,000000000000000E+000
5,2471831E-002	-1,281271807769487E-003	1,000000000000000E+000
4,9533777E-002	-1,273309715811400E-003	1,000000000000000E+000
4,6498038E-002	-1,275363746957770E-003	1,000000000000000E+000
4,3452740E-002	-1,278529376338114E-003	1,000000000000000E+000
4,0530611E-002	-1,267454503530090E-003	1,000000000000000E+000
3,7496991E-002	-1,274280143960638E-003	1,000000000000000E+000
3,4515399E-002	-1,272991329417744E-003	1,000000000000000E+000
3,1467978E-002	-1,274874515618241E-003	1,000000000000000E+000
2,8506819E-002	-1,273136001980924E-003	1,000000000000000E+000
2,5481436E-002	-1,262869199479792E-003	1,000000000000000E+000
2,2540197E-002	-1,268450160187922E-003	1,000000000000000E+000
1,9478971E-002	-1,254548687415112E-003	1,000000000000000E+000
1,6560027E-002	-1,252375344167108E-003	1,000000000000000E+000
1,3555859E-002	-1,232532408826694E-003	1,000000000000000E+000
1,0527830E-002	-1,224751196090033E-003	1,000000000000000E+000
7,4623562E-003	-1,222022316814425E-003	1,000000000000000E+000
4,5232386E-003	-1,185428458199637E-003	1,000000000000000E+000
1,5172270E-003	-1,200713708550580E-003	1,000000000000000E+000
-7,6564480E-005	-1,190880917277481E-003	1,000000000000000E+000