File: fig_4_nife_ceo2/Activity_2_CV/Ni25Fe75_Activity_2_CV_2_02_CV_C01.txt
Ewe/V	<I>/mA	cycle number
2,6851651E-004	-4,484519958496094E-001	1,000000000000000E+000
2,8888755E-003	-3,945775896866721E-002	1,000000000000000E+000
5,9442404E-003	-1,956385555972283E-002	1,000000000000000E+000
8,9308424E-003	-1,336981130110804E-002	1,000000000000000E+000
1,1902392E-002	-1,011587609578110E-002	1,000000000000000E+000
1,4943928E-002	-8,131858268491388E-003	1,000000000000000E+000
1,7954187E-002	-6,752470934282041E-003	1,000000000000000E+000
2,0951703E-002	-5,731355591401005E-003	1,000000000000000E+000
2,3930108E-002	-4,950511683126494E-003	1,000000000000000E+000
2,6961392E-002	-4,329458289623479E-003	1,000000000000000E+000
3,0019645E-002	-3,867989668683066E-003	1,000000000000000E+000
3,3015039E-002	-3,437883549070514E-003	1,000000000000000E+000
3,6008313E-002	-3,073502241674367E-003	1,000000000000000E+000
3,9035745E-002	-2,745710778780820E-003	1,000000000000000E+000
4,2022455E-002	-2,466483037651390E-003	1,000000000000000E+000
4,5052890E-002	-2,219332166180043E-003	1,000000000000000E+000
4,8017491E-002	-1,997218289405429E-003	1,000000000000000E+000
5,1111631E-002	-1,797183232476053E-003	1,000000000000000E+000
5,4075170E-002	-1,618481629102175E-003	1,000000000000000E+000
5,7010043E-002	-1,471620452958344E-003	1,000000000000000E+000
6,0090382E-002	-1,319991546242693E-003	1,000000000000000E+000
6,3053921E-002	-1,206633250155211E-003	1,000000000000000E+000
6,6066757E-002	-1,088551396529712E-003	1,000000000000000E+000
6,9042578E-002	-9,898905501150605E-004	1,000000000000000E+000
7,2084360E-002	-9,103962431041713E-004	1,000000000000000E+000
7,5088583E-002	-8,297840898538822E-004	1,000000000000000E+000
7,8085043E-002	-7,531215191906625E-004	1,000000000000000E+000
8,1045397E-002	-6,924940714111844E-004	1,000000000000000E+000
8,4085383E-002	-6,421569762339943E-004	1,000000000000000E+000
8,6993717E-002	-5,964460272886475E-004	1,000000000000000E+000
9,0081483E-002	-5,552783158919326E-004	1,000000000000000E+000
9,3029089E-002	-5,200908507423767E-004	1,000000000000000E+000
9,6047848E-002	-4,886862078735542E-004	1,000000000000000E+000
9,9027395E-002	-4,649729145972462E-004	1,000000000000000E+000
1,0203332E-001	-4,407994997589759E-004	1,000000000000000E+000
1,0502128E-001	-4,127745590524049E-004	1,000000000000000E+000
1,0796146E-001	-4,030475130956531E-004	1,000000000000000E+000
1,1101527E-001	-3,769666489011475E-004	1,000000000000000E+000
1,1401702E-001	-3,672774843341293E-004	1,000000000000000E+000
1,1699118E-001	-3,461649168932748E-004	1,000000000000000E+000
1,2002373E-001	-3,314774291632129E-004	1,000000000000000E+000
1,2297347E-001	-3,091081523872228E-004	1,000000000000000E+000
1,2599435E-001	-2,963180979136419E-004	1,000000000000000E+000
1,2903328E-001	-2,713487869979003E-004	1,000000000000000E+000
1,3203920E-001	-2,470499018791341E-004	1,000000000000000E+000
1,3501558E-001	-2,359143953809453E-004	1,000000000000000E+000
1,3798760E-001	-2,091159559734106E-004	1,000000000000000E+000
1,4096069E-001	-1,914739368377048E-004	1,000000000000000E+000
1,4403467E-001	-1,696539842967680E-004	1,000000000000000E+000
1,4701307E-001	-1,466062433629952E-004	1,000000000000000E+000
1,5000847E-001	-1,186202842727673E-004	1,000000000000000E+000
1,5301767E-001	-9,318195358381306E-005	1,000000000000000E+000
1,5602154E-001	-6,172904743975542E-005	1,000000000000000E+000
1,5898214E-001	-3,962336754041566E-005	1,000000000000000E+000
1,6198686E-001	-1,037304788218554E-005	1,000000000000000E+000
1,6500986E-001	1,938309962980548E-005	1,000000000000000E+000
1,6800949E-001	4,713517527361888E-005	1,000000000000000E+000
1,7104951E-001	7,549538201450474E-005	1,000000000000000E+000
1,7400666E-001	1,173203339244964E-004	1,000000000000000E+000
1,7701478E-001	1,472522545491034E-004	1,000000000000000E+000
1,8001018E-001	1,879953534056904E-004	1,000000000000000E+000
1,8300451E-001	2,200892417447103E-004	1,000000000000000E+000
1,8606894E-001	2,605449131299046E-004	1,000000000000000E+000
1,8900485E-001	2,890025742981013E-004	1,000000000000000E+000
1,9211914E-001	3,265574354471195E-004	1,000000000000000E+000
1,9498716E-001	3,591964491317335E-004	1,000000000000000E+000
1,9803137E-001	3,854593243263656E-004	1,000000000000000E+000
2,0105332E-001	4,210412932279754E-004	1,000000000000000E+000
2,0405191E-001	4,479871857879366E-004	1,000000000000000E+000
2,0706217E-001	4,825709942835386E-004	1,000000000000000E+000
2,1002994E-001	5,004501966794860E-004	1,000000000000000E+000
2,1304552E-001	5,186105179853162E-004	1,000000000000000E+000
2,1606641E-001	5,320550897774078E-004	1,000000000000000E+000
2,1908657E-001	5,370362577370152E-004	1,000000000000000E+000
2,2204125E-001	5,501406857776329E-004	1,000000000000000E+000
2,2497240E-001	5,474273480659056E-004	1,000000000000000E+000
2,2806497E-001	5,450017173449706E-004	1,000000000000000E+000
2,3104338E-001	5,475498476568766E-004	1,000000000000000E+000
2,3403025E-001	5,349236856043585E-004	1,000000000000000E+000
2,3704371E-001	5,216326087752454E-004	1,000000000000000E+000
2,4001256E-001	5,043870147559948E-004	1,000000000000000E+000
2,4301963E-001	4,902193244609582E-004	1,000000000000000E+000
2,4601184E-001	4,680288093671867E-004	1,000000000000000E+000
2,4902208E-001	4,507738673496134E-004	1,000000000000000E+000
2,5199521E-001	4,251974790454457E-004	1,000000000000000E+000
2,5499907E-001	4,153741512864951E-004	1,000000000000000E+000
2,5799340E-001	3,993541029526423E-004	1,000000000000000E+000
2,6098454E-001	3,767527880608967E-004	1,000000000000000E+000
2,6399797E-001	3,635712795007302E-004	1,000000000000000E+000
2,6700932E-001	3,493219147758979E-004	1,000000000000000E+000
2,7001745E-001	3,391887144992538E-004	1,000000000000000E+000
2,7299696E-001	3,295351393170771E-004	1,000000000000000E+000
2,7597427E-001	3,286575434545825E-004	1,000000000000000E+000
2,7895200E-001	3,301942516553671E-004	1,000000000000000E+000
2,8198096E-001	3,352376739308559E-004	1,000000000000000E+000
2,8500691E-001	3,454851620001186E-004	1,000000000000000E+000
2,8797391E-001	3,648010220010656E-004	1,000000000000000E+000
2,9097673E-001	3,794669528938300E-004	1,000000000000000E+000
2,9399446E-001	4,047903929448484E-004	1,000000000000000E+000
2,9697496E-001	4,301109442035210E-004	1,000000000000000E+000
3,0002874E-001	4,574354187878577E-004	1,000000000000000E+000
3,0304006E-001	4,808030949549885E-004	1,000000000000000E+000
3,0603546E-001	5,222010777638821E-004	1,000000000000000E+000
3,0899897E-001	5,398387633921854E-004	1,000000000000000E+000
3,1206235E-001	5,775348786205749E-004	1,000000000000000E+000
3,1495789E-001	5,962637781165257E-004	1,000000000000000E+000
3,1801385E-001	6,164385241409403E-004	1,000000000000000E+000
3,2098055E-001	6,510182218029872E-004	1,000000000000000E+000
3,2396746E-001	6,791663701667325E-004	1,000000000000000E+000
3,2702973E-001	7,041872345810475E-004	1,000000000000000E+000
3,3004957E-001	7,216501189120303E-004	1,000000000000000E+000
3,3299294E-001	7,493328110063091E-004	1,000000000000000E+000
3,3604461E-001	7,658961893951474E-004	1,000000000000000E+000
3,3901346E-001	7,795415856687964E-004	1,000000000000000E+000
3,4201947E-001	8,002962221121818E-004	1,000000000000000E+000
3,4499034E-001	8,084771499110768E-004	1,000000000000000E+000
3,4807077E-001	8,227649573994307E-004	1,000000000000000E+000
3,5103747E-001	8,311847633110138E-004	1,000000000000000E+000
3,5403287E-001	8,283533196868087E-004	1,000000000000000E+000
3,5700390E-001	8,352543960662411E-004	1,000000000000000E+000
3,6003321E-001	8,311086291424297E-004	1,000000000000000E+000
3,6298934E-001	8,359998785237924E-004	1,000000000000000E+000
3,6591995E-001	8,295610453649708E-004	1,000000000000000E+000
3,6895251E-001	8,260909937375070E-004	1,000000000000000E+000
3,7198636E-001	8,121240791627016E-004	1,000000000000000E+000
3,7506011E-001	8,056480232437463E-004	1,000000000000000E+000
3,7793523E-001	8,011704059326030E-004	1,000000000000000E+000
3,8099679E-001	7,792315057954281E-004	1,000000000000000E+000
3,8401973E-001	7,769828457691516E-004	1,000000000000000E+000
3,8704276E-001	7,609121995196205E-004	1,000000000000000E+000
3,9000416E-001	7,486609313522834E-004	1,000000000000000E+000
3,9298680E-001	7,343686402587531E-004	1,000000000000000E+000
3,9601406E-001	7,259997995305943E-004	1,000000000000000E+000
3,9900091E-001	7,030251646171042E-004	1,000000000000000E+000
4,0193582E-001	6,998147972624991E-004	1,000000000000000E+000
4,0499157E-001	6,911733778007393E-004	1,000000000000000E+000
4,0799561E-001	6,819846302672083E-004	1,000000000000000E+000
4,1095281E-001	6,797485894737320E-004	1,000000000000000E+000
4,1397575E-001	6,660516834623787E-004	1,000000000000000E+000
4,1700411E-001	6,611696551075104E-004	1,000000000000000E+000
4,1995913E-001	6,620569537622596E-004	1,000000000000000E+000
4,2296305E-001	6,694845029588089E-004	1,000000000000000E+000
4,2603171E-001	6,636563427085346E-004	1,000000000000000E+000
4,2893690E-001	6,806282001470855E-004	1,000000000000000E+000
4,3195575E-001	6,942589751582628E-004	1,000000000000000E+000
4,3495846E-001	7,122810929064980E-004	1,000000000000000E+000
4,3799582E-001	7,380776943555160E-004	1,000000000000000E+000
4,4099805E-001	7,677303717323891E-004	1,000000000000000E+000
4,4399136E-001	7,974625001398103E-004	1,000000000000000E+000
4,4694638E-001	8,377774598503536E-004	1,000000000000000E+000
4,4996405E-001	8,792745707430064E-004	1,000000000000000E+000
4,5298600E-001	9,266904067738956E-004	1,000000000000000E+000
4,5596224E-001	9,785033504744189E-004	1,000000000000000E+000
4,5898739E-001	1,028363709791724E-003	1,000000000000000E+000
4,6200401E-001	1,078547221527153E-003	1,000000000000000E+000
4,6505979E-001	1,136943369419373E-003	1,000000000000000E+000
4,6805218E-001	1,192050629676268E-003	1,000000000000000E+000
4,7097111E-001	1,253808741738572E-003	1,000000000000000E+000
4,7403553E-001	1,322647571783686E-003	1,000000000000000E+000
4,7698522E-001	1,384084863727000E-003	1,000000000000000E+000
4,7999340E-001	1,459885425017286E-003	1,000000000000000E+000
4,8306632E-001	1,532459591635213E-003	1,000000000000000E+000
4,8601922E-001	1,618830231186651E-003	1,000000000000000E+000
4,8901674E-001	1,714576313395791E-003	1,000000000000000E+000
4,9201551E-001	1,815204499683703E-003	1,000000000000000E+000
4,9495119E-001	1,945498426774935E-003	1,000000000000000E+000
4,9798340E-001	2,098756072956627E-003	1,000000000000000E+000
5,0109917E-001	2,275778636775326E-003	1,000000000000000E+000
5,0404781E-001	2,506601228781283E-003	1,000000000000000E+000
5,0704426E-001	2,781409722585369E-003	1,000000000000000E+000
5,0998658E-001	3,136296367557564E-003	1,000000000000000E+000
5,1298410E-001	3,570660829071287E-003	1,000000000000000E+000
5,1596576E-001	4,143423554587855E-003	1,000000000000000E+000
5,1894307E-001	4,843820789192703E-003	1,000000000000000E+000
5,2198094E-001	5,745477774647678E-003	1,000000000000000E+000
5,2491277E-001	6,886545286717644E-003	1,000000000000000E+000
5,2797067E-001	8,397156063611383E-003	1,000000000000000E+000
5,3111267E-001	1,065742588954127E-002	1,000000000000000E+000
5,3410375E-001	1,296527780259301E-002	1,000000000000000E+000
5,3710765E-001	1,559216858446380E-002	1,000000000000000E+000
5,4011470E-001	1,852566439221787E-002	1,000000000000000E+000
5,4309523E-001	2,177654768014547E-002	1,000000000000000E+000
5,4605240E-001	2,540898530257249E-002	1,000000000000000E+000
5,4902655E-001	2,930225456020497E-002	1,000000000000000E+000
5,5208027E-001	3,347568867246953E-002	1,000000000000000E+000
5,5509591E-001	3,784616021919884E-002	1,000000000000000E+000
5,5813801E-001	4,231737217768075E-002	1,000000000000000E+000
5,6108880E-001	4,741802154047631E-002	1,000000000000000E+000
5,6408525E-001	5,268728189368876E-002	1,000000000000000E+000
5,6708914E-001	5,913147709518248E-002	1,000000000000000E+000
5,7005376E-001	6,639508889141228E-002	1,000000000000000E+000
5,7310545E-001	7,464652408818262E-002	1,000000000000000E+000
5,7609975E-001	8,451758894347128E-002	1,000000000000000E+000
5,7913339E-001	9,550441240378638E-002	1,000000000000000E+000
5,8210194E-001	1,074884470043349E-001	1,000000000000000E+000
5,8516908E-001	1,208380897746236E-001	1,000000000000000E+000
5,8818012E-001	1,350463212503630E-001	1,000000000000000E+000
5,9118253E-001	1,496468365576278E-001	1,000000000000000E+000
5,9416342E-001	1,682863279949043E-001	1,000000000000000E+000
5,9720445E-001	1,832560867455511E-001	1,000000000000000E+000
6,0023814E-001	2,026324235473056E-001	1,000000000000000E+000
6,0317934E-001	2,228091616572097E-001	1,000000000000000E+000
6,0619068E-001	2,420334891941982E-001	1,000000000000000E+000
6,0918605E-001	2,627010311479441E-001	1,000000000000000E+000
6,1219317E-001	2,862860609939890E-001	1,000000000000000E+000
6,1519593E-001	3,136079034149295E-001	1,000000000000000E+000
6,1824155E-001	3,348205397916835E-001	1,000000000000000E+000
6,2112939E-001	3,608722721908642E-001	1,000000000000000E+000
6,2418860E-001	3,891611507779089E-001	1,000000000000000E+000
6,2713087E-001	4,168416995327080E-001	1,000000000000000E+000
6,3019204E-001	4,460718619918066E-001	1,000000000000000E+000
6,3315564E-001	4,746163284781977E-001	1,000000000000000E+000
6,3618386E-001	5,123227102652397E-001	1,000000000000000E+000
6,3919210E-001	5,454195036960439E-001	1,000000000000000E+000
6,4214283E-001	5,858830825432025E-001	1,000000000000000E+000
6,4518285E-001	6,215089533044393E-001	1,000000000000000E+000
6,4812201E-001	6,618710875620968E-001	1,000000000000000E+000
6,5116405E-001	7,018957916766784E-001	1,000000000000000E+000
6,5419877E-001	7,479020045846365E-001	1,000000000000000E+000
6,5711123E-001	7,922086584510577E-001	1,000000000000000E+000
6,6018206E-001	8,384881513510001E-001	1,000000000000000E+000
6,6316366E-001	8,878430607823722E-001	1,000000000000000E+000
6,6614741E-001	9,440236267488054E-001	1,000000000000000E+000
6,6916192E-001	9,965967804092166E-001	1,000000000000000E+000
6,7215300E-001	1,049910106254814E+000	1,000000000000000E+000
6,7521107E-001	1,111804514760136E+000	1,000000000000000E+000
6,7827380E-001	1,170031410706741E+000	1,000000000000000E+000
6,8130594E-001	1,236746467193775E+000	1,000000000000000E+000
6,8421292E-001	1,295977102470316E+000	1,000000000000000E+000
6,8724895E-001	1,364613675070999E+000	1,000000000000000E+000
6,9024646E-001	1,435466994580030E+000	1,000000000000000E+000
6,9325989E-001	1,505285149545761E+000	1,000000000000000E+000
6,9633919E-001	1,578572442235593E+000	1,000000000000000E+000
6,9927716E-001	1,654996456574146E+000	1,000000000000000E+000
7,0228428E-001	1,728065096264253E+000	1,000000000000000E+000
7,0527434E-001	1,805864807311241E+000	1,000000000000000E+000
7,0826131E-001	1,888110796002302E+000	1,000000000000000E+000
7,1124709E-001	1,969725905222280E+000	1,000000000000000E+000
7,1428502E-001	2,052865069773457E+000	1,000000000000000E+000
7,1720713E-001	2,140255047806683E+000	1,000000000000000E+000
7,2025126E-001	2,232739248395369E+000	1,000000000000000E+000
7,2321385E-001	2,320145102821780E+000	1,000000000000000E+000
7,2626126E-001	2,414205338172371E+000	1,000000000000000E+000
7,2929811E-001	2,502921510377966E+000	1,000000000000000E+000
7,3227435E-001	2,599388131749333E+000	1,000000000000000E+000
7,3524857E-001	2,698136031965550E+000	1,000000000000000E+000
7,3825824E-001	2,791470682018186E+000	1,000000000000000E+000
7,4128395E-001	2,891955753623627E+000	1,000000000000000E+000
7,4429512E-001	2,994185988548885E+000	1,000000000000000E+000
7,4730968E-001	3,098940774359122E+000	1,000000000000000E+000
7,5029552E-001	3,199473730628455E+000	1,000000000000000E+000
7,5326341E-001	3,302507385341215E+000	1,000000000000000E+000
7,5625336E-001	3,406749612991774E+000	1,000000000000000E+000
7,5927013E-001	3,518061281737289E+000	1,000000000000000E+000
7,6222825E-001	3,620417460359967E+000	1,000000000000000E+000
7,6526403E-001	3,737759431000491E+000	1,000000000000000E+000
7,6823610E-001	3,850058945905332E+000	1,000000000000000E+000
7,7126557E-001	3,966072988632479E+000	1,000000000000000E+000
7,7429372E-001	4,077479682710702E+000	1,000000000000000E+000
7,7726066E-001	4,195223371796828E+000	1,000000000000000E+000
7,8030050E-001	4,308620958912128E+000	1,000000000000000E+000
7,8327781E-001	4,423617861911556E+000	1,000000000000000E+000
7,8626466E-001	4,547431857373709E+000	1,000000000000000E+000
7,8926432E-001	4,663322348341914E+000	1,000000000000000E+000
7,9223639E-001	4,790325584798140E+000	1,000000000000000E+000
7,9524863E-001	4,909807797022964E+000	1,000000000000000E+000
7,9825568E-001	5,028426080649311E+000	1,000000000000000E+000
8,0123627E-001	5,154077971907427E+000	1,000000000000000E+000
8,0424017E-001	5,272316404149016E+000	1,000000000000000E+000
8,0723351E-001	5,403080509126603E+000	1,000000000000000E+000
8,1028730E-001	5,522402812023550E+000	1,000000000000000E+000
8,1328166E-001	5,648971833508298E+000	1,000000000000000E+000
8,1625581E-001	5,776551827889712E+000	1,000000000000000E+000
8,1919807E-001	5,899758020766427E+000	1,000000000000000E+000
8,2221264E-001	6,028502311092950E+000	1,000000000000000E+000
8,2521325E-001	6,160739919225632E+000	1,000000000000000E+000
8,2822675E-001	6,296874555060111E+000	1,000000000000000E+000
8,3131558E-001	6,417871648958027E+000	1,000000000000000E+000
8,3426851E-001	6,553073032169948E+000	1,000000000000000E+000
8,3722997E-001	6,689742518120056E+000	1,000000000000000E+000
8,4026349E-001	6,823112686880592E+000	1,000000000000000E+000
8,4325463E-001	6,956151195934808E+000	1,000000000000000E+000
8,4622669E-001	7,090393942635053E+000	1,000000000000000E+000
8,4926671E-001	7,231144276200553E+000	1,000000000000000E+000
8,5220999E-001	7,363408100577975E+000	1,000000000000000E+000
8,5527444E-001	7,505865467851656E+000	1,000000000000000E+000
8,5827774E-001	7,640794507284170E+000	1,000000000000000E+000
8,6123234E-001	7,775908011157510E+000	1,000000000000000E+000
8,6422414E-001	7,896349750845090E+000	1,000000000000000E+000
8,6731547E-001	8,056754354108762E+000	1,000000000000000E+000
8,7025458E-001	8,202835259861942E+000	1,000000000000000E+000
8,7323201E-001	8,335143955859458E+000	1,000000000000000E+000
8,7626344E-001	8,477950769014086E+000	1,000000000000000E+000
8,7922704E-001	8,626817526257767E+000	1,000000000000000E+000
8,8225317E-001	8,776110710132663E+000	1,000000000000000E+000
8,8531864E-001	8,914802482541710E+000	1,000000000000000E+000
8,8823122E-001	9,059039856909052E+000	1,000000000000000E+000
8,9125097E-001	9,204405953161128E+000	1,000000000000000E+000
8,9424956E-001	9,340165789503033E+000	1,000000000000000E+000
8,9729381E-001	9,489988638092342E+000	1,000000000000000E+000
9,0021491E-001	9,645708021393190E+000	1,000000000000000E+000
9,0326130E-001	9,793061501517599E+000	1,000000000000000E+000
9,0624392E-001	9,934428507238295E+000	1,000000000000000E+000
9,0924472E-001	1,005798408213388E+001	1,000000000000000E+000
9,1225165E-001	1,022229651076182E+001	1,000000000000000E+000
9,1521317E-001	1,038022540783396E+001	1,000000000000000E+000
9,1824573E-001	1,052673981569072E+001	1,000000000000000E+000
9,2123574E-001	1,068207612795888E+001	1,000000000000000E+000
9,2421407E-001	1,082712640457651E+001	1,000000000000000E+000
9,2731887E-001	1,097982907283702E+001	1,000000000000000E+000
9,3032926E-001	1,113405960379271E+001	1,000000000000000E+000
9,3333203E-001	1,127523464606466E+001	1,000000000000000E+000
9,3631995E-001	1,140984687276708E+001	1,000000000000000E+000
9,3935788E-001	1,156698558031832E+001	1,000000000000000E+000
9,4230539E-001	1,171707732972103E+001	1,000000000000000E+000
9,4533902E-001	1,186350363898441E+001	1,000000000000000E+000
9,4832814E-001	1,200920871967902E+001	1,000000000000000E+000
9,5132810E-001	1,216262001803591E+001	1,000000000000000E+000
9,5432740E-001	1,230305011904969E+001	1,000000000000000E+000
9,5734686E-001	1,245833432876154E+001	1,000000000000000E+000
9,6034688E-001	1,260278187398200E+001	1,000000000000000E+000
9,6336871E-001	1,272642491991016E+001	1,000000000000000E+000
9,6632171E-001	1,289445176605736E+001	1,000000000000000E+000
9,6931070E-001	1,303417599728327E+001	1,000000000000000E+000
9,7229022E-001	1,317113038052786E+001	1,000000000000000E+000
9,7535872E-001	1,331086859749018E+001	1,000000000000000E+000
9,7831273E-001	1,345017503435110E+001	1,000000000000000E+000
9,8132420E-001	1,359667011088528E+001	1,000000000000000E+000
9,8432267E-001	1,374091618213993E+001	1,000000000000000E+000
9,8732769E-001	1,387957417194536E+001	1,000000000000000E+000
9,9035066E-001	1,399828257649936E+001	1,000000000000000E+000
9,9328029E-001	1,413244838360484E+001	1,000000000000000E+000
9,9634254E-001	1,427324143302133E+001	1,000000000000000E+000
9,9927676E-001	1,437436727069476E+001	1,000000000000000E+000
9,9821275E-001	1,430157988183248E+001	1,000000000000000E+000
9,9520421E-001	1,405162162223917E+001	1,000000000000000E+000
9,9218565E-001	1,381734326245294E+001	1,000000000000000E+000
9,8919439E-001	1,364327935161501E+001	1,000000000000000E+000
9,8622334E-001	1,343892225778563E+001	1,000000000000000E+000
9,8322481E-001	1,325685188478352E+001	1,000000000000000E+000
9,8015195E-001	1,307502014039596E+001	1,000000000000000E+000
9,7723192E-001	1,288510424547456E+001	1,000000000000000E+000
9,7421956E-001	1,270917247941976E+001	1,000000000000000E+000
9,7115380E-001	1,254058927515778E+001	1,000000000000000E+000
9,6822339E-001	1,235390716906036E+001	1,000000000000000E+000
9,6515518E-001	1,220389896553172E+001	1,000000000000000E+000
9,6227729E-001	1,202451476941300E+001	1,000000000000000E+000
9,5920432E-001	1,186560670291485E+001	1,000000000000000E+000
9,5626843E-001	1,168877725766089E+001	1,000000000000000E+000
9,5320922E-001	1,153573330189367E+001	1,000000000000000E+000
9,5024055E-001	1,136213529684369E+001	1,000000000000000E+000
9,4721532E-001	1,121468027676042E+001	1,000000000000000E+000
9,4419974E-001	1,105609200215670E+001	1,000000000000000E+000
9,4121075E-001	1,089201952405531E+001	1,000000000000000E+000
9,3824416E-001	1,073819468826713E+001	1,000000000000000E+000
9,3523049E-001	1,058039590243311E+001	1,000000000000000E+000
9,3218315E-001	1,042760786697986E+001	1,000000000000000E+000
9,2921209E-001	1,027464514991053E+001	1,000000000000000E+000
9,2618698E-001	1,011543865329560E+001	1,000000000000000E+000
9,2320222E-001	9,967151007279199E+000	1,000000000000000E+000
9,2022711E-001	9,801838756959214E+000	1,000000000000000E+000
9,1724330E-001	9,672815201166273E+000	1,000000000000000E+000
9,1421497E-001	9,514831837342683E+000	1,000000000000000E+000
9,1121298E-001	9,373932785421623E+000	1,000000000000000E+000
9,0822953E-001	9,236325974705011E+000	1,000000000000000E+000
9,0521252E-001	9,072050926203005E+000	1,000000000000000E+000
9,0225255E-001	8,922633995477312E+000	1,000000000000000E+000
8,9924121E-001	8,788365541537061E+000	1,000000000000000E+000
8,9625967E-001	8,649554008732025E+000	1,000000000000000E+000
8,9318466E-001	8,498211974189360E+000	1,000000000000000E+000
8,9025074E-001	8,359387459533288E+000	1,000000000000000E+000
8,8718534E-001	8,220957818282706E+000	1,000000000000000E+000
8,8418782E-001	8,075540712563651E+000	1,000000000000000E+000
8,8120627E-001	7,931443035737772E+000	1,000000000000000E+000
8,7818205E-001	7,803502638151656E+000	1,000000000000000E+000
8,7521434E-001	7,682307626519886E+000	1,000000000000000E+000
8,7220627E-001	7,542147935247741E+000	1,000000000000000E+000
8,6915773E-001	7,402876509695659E+000	1,000000000000000E+000
8,6617297E-001	7,261464299866390E+000	1,000000000000000E+000
8,6318612E-001	7,146117514088033E+000	1,000000000000000E+000
8,6023420E-001	7,023348628460951E+000	1,000000000000000E+000
8,5722929E-001	6,880380113581669E+000	1,000000000000000E+000
8,5421908E-001	6,755617207207656E+000	1,000000000000000E+000
8,5123116E-001	6,625356166842938E+000	1,000000000000000E+000
8,4822500E-001	6,497389819954545E+000	1,000000000000000E+000
8,4521931E-001	6,372176204679320E+000	1,000000000000000E+000
8,4216511E-001	6,247345655041485E+000	1,000000000000000E+000
8,3917946E-001	6,122158361197563E+000	1,000000000000000E+000
8,3619261E-001	6,006141892703994E+000	1,000000000000000E+000
8,3325976E-001	5,882583600863839E+000	1,000000000000000E+000
8,3022726E-001	5,754631273532937E+000	1,000000000000000E+000
8,2721275E-001	5,643215479054660E+000	1,000000000000000E+000
8,2423323E-001	5,525952901801027E+000	1,000000000000000E+000
8,2124639E-001	5,412846125172376E+000	1,000000000000000E+000
8,1819665E-001	5,284553170583678E+000	1,000000000000000E+000
8,1522584E-001	5,181305421216421E+000	1,000000000000000E+000
8,1221014E-001	5,057980570933715E+000	1,000000000000000E+000
8,0924779E-001	4,949573435446865E+000	1,000000000000000E+000
8,0623007E-001	4,839947822277793E+000	1,000000000000000E+000
8,0323261E-001	4,727254745235783E+000	1,000000000000000E+000
8,0020845E-001	4,620142566137311E+000	1,000000000000000E+000
7,9712611E-001	4,503331301786204E+000	1,000000000000000E+000
7,9409134E-001	4,396275580402417E+000	1,000000000000000E+000
7,9105741E-001	4,295821308409970E+000	1,000000000000000E+000
7,8802723E-001	4,181740711538161E+000	1,000000000000000E+000
7,8509921E-001	4,078119699217897E+000	1,000000000000000E+000
7,8202373E-001	3,978641472706201E+000	1,000000000000000E+000
7,7907085E-001	3,872014085215230E+000	1,000000000000000E+000
7,7606601E-001	3,774683147972951E+000	1,000000000000000E+000
7,7304500E-001	3,671326812635463E+000	1,000000000000000E+000
7,7008688E-001	3,567245919924737E+000	1,000000000000000E+000
7,6702029E-001	3,469850131477358E+000	1,000000000000000E+000
7,6404506E-001	3,367305332334400E+000	1,000000000000000E+000
7,6104331E-001	3,276236451503365E+000	1,000000000000000E+000
7,5803196E-001	3,177360958318832E+000	1,000000000000000E+000
7,5505674E-001	3,083460869499888E+000	1,000000000000000E+000
7,5205606E-001	2,986385958433949E+000	1,000000000000000E+000
7,4910629E-001	2,897987920123555E+000	1,000000000000000E+000
7,4607688E-001	2,802996070966827E+000	1,000000000000000E+000
7,4309218E-001	2,714548430846932E+000	1,000000000000000E+000
7,4006915E-001	2,630522182316874E+000	1,000000000000000E+000
7,3705679E-001	2,538215572686006E+000	1,000000000000000E+000
7,3407096E-001	2,460679221906744E+000	1,000000000000000E+000
7,3104751E-001	2,371608694179002E+000	1,000000000000000E+000
7,2806001E-001	2,294372059556899E+000	1,000000000000000E+000
7,2507334E-001	2,203371476559635E+000	1,000000000000000E+000
7,2206390E-001	2,129704479068995E+000	1,000000000000000E+000
7,1912378E-001	2,048183200192430E+000	1,000000000000000E+000
7,1605825E-001	1,971183473375234E+000	1,000000000000000E+000
7,1311164E-001	1,897525615669160E+000	1,000000000000000E+000
7,1009076E-001	1,822821446185486E+000	1,000000000000000E+000
7,0708477E-001	1,757371813160226E+000	1,000000000000000E+000
7,0406705E-001	1,686992828064760E+000	1,000000000000000E+000
7,0107812E-001	1,609019998249825E+000	1,000000000000000E+000
6,9804525E-001	1,542069575621731E+000	1,000000000000000E+000
6,9507885E-001	1,476695801623494E+000	1,000000000000000E+000
6,9211090E-001	1,414496688120051E+000	1,000000000000000E+000
6,8904763E-001	1,350905036693126E+000	1,000000000000000E+000
6,8605864E-001	1,284906714124070E+000	1,000000000000000E+000
6,8308234E-001	1,230171348578603E+000	1,000000000000000E+000
6,8001902E-001	1,170076168406244E+000	1,000000000000000E+000
6,7706716E-001	1,115171886566616E+000	1,000000000000000E+000
6,7408770E-001	1,056536559961621E+000	1,000000000000000E+000
6,7102653E-001	1,000422606175698E+000	1,000000000000000E+000
6,6805339E-001	9,541560208294015E-001	1,000000000000000E+000
6,6508573E-001	9,034317050703047E-001	1,000000000000000E+000
6,6209012E-001	8,549667362571434E-001	1,000000000000000E+000
6,5910220E-001	8,073185053052143E-001	1,000000000000000E+000
6,5611213E-001	7,695348505353046E-001	1,000000000000000E+000
6,5305728E-001	7,249450611284272E-001	1,000000000000000E+000
6,5010226E-001	6,834622790272462E-001	1,000000000000000E+000
6,4711738E-001	6,420492691847404E-001	1,000000000000000E+000
6,4405733E-001	6,076882607440854E-001	1,000000000000000E+000
6,4107466E-001	5,691168944556213E-001	1,000000000000000E+000
6,3812482E-001	5,360386228184257E-001	1,000000000000000E+000
6,3507539E-001	5,023572243657135E-001	1,000000000000000E+000
6,3208419E-001	4,693018451523043E-001	1,000000000000000E+000
6,2891144E-001	4,385950947201529E-001	1,000000000000000E+000
6,2585664E-001	4,089065884533518E-001	1,000000000000000E+000
6,2286657E-001	3,801490531224863E-001	1,000000000000000E+000
6,1989772E-001	3,529711541003806E-001	1,000000000000000E+000
6,1691082E-001	3,294519814166350E-001	1,000000000000000E+000
6,1386448E-001	3,039898769718814E-001	1,000000000000000E+000
6,1092317E-001	2,809235679910702E-001	1,000000000000000E+000
6,0790229E-001	2,577894007483008E-001	1,000000000000000E+000
6,0490251E-001	2,380964325365915E-001	1,000000000000000E+000
6,0189247E-001	2,175821089069629E-001	1,000000000000000E+000
5,9890908E-001	1,998378141749608E-001	1,000000000000000E+000
5,9588569E-001	1,817018935549792E-001	1,000000000000000E+000
5,9287441E-001	1,639442840926852E-001	1,000000000000000E+000
5,8984393E-001	1,494985068979294E-001	1,000000000000000E+000
5,8680612E-001	1,350422668336236E-001	1,000000000000000E+000
5,8391261E-001	1,204407672057790E-001	1,000000000000000E+000
5,8086628E-001	1,070351187961260E-001	1,000000000000000E+000
5,7791871E-001	9,569110275170178E-002	1,000000000000000E+000
5,7484573E-001	8,473397300804653E-002	1,000000000000000E+000
5,7191300E-001	7,451689284951096E-002	1,000000000000000E+000
5,6890810E-001	6,533300740509163E-002	1,000000000000000E+000
5,6589675E-001	5,711747790938115E-002	1,000000000000000E+000
5,6288642E-001	4,926173497427488E-002	1,000000000000000E+000
5,5969781E-001	4,201199762367946E-002	1,000000000000000E+000
5,5664617E-001	3,599117962087028E-002	1,000000000000000E+000
5,5365282E-001	3,064438400662339E-002	1,000000000000000E+000
5,5065745E-001	2,594932041853215E-002	1,000000000000000E+000
5,4767585E-001	2,189096874758578E-002	1,000000000000000E+000
5,4468226E-001	1,829130595871534E-002	1,000000000000000E+000
5,4163307E-001	1,527739185475599E-002	1,000000000000000E+000
5,3873217E-001	1,265883229802683E-002	1,000000000000000E+000
5,3566986E-001	1,043278243616561E-002	1,000000000000000E+000
5,3266913E-001	8,599133886208921E-003	1,000000000000000E+000
5,2971202E-001	7,044592079397102E-003	1,000000000000000E+000
5,2673572E-001	5,734897456853863E-003	1,000000000000000E+000
5,2364904E-001	4,647080012436924E-003	1,000000000000000E+000
5,2055597E-001	3,733944689314879E-003	1,000000000000000E+000
5,1759028E-001	2,990686723215626E-003	1,000000000000000E+000
5,1458007E-001	2,364537681298768E-003	1,000000000000000E+000
5,1157367E-001	1,842655526197313E-003	1,000000000000000E+000
5,0857860E-001	1,402996716067370E-003	1,000000000000000E+000
5,0558996E-001	1,026902707066627E-003	1,000000000000000E+000
5,0261647E-001	6,976865744137391E-004	1,000000000000000E+000
4,9961263E-001	4,026392238908483E-004	1,000000000000000E+000
4,9658003E-001	1,354016153837486E-004	1,000000000000000E+000
4,9357510E-001	-1,105414530707563E-004	1,000000000000000E+000
4,9064022E-001	-3,454447103747949E-004	1,000000000000000E+000
4,8762044E-001	-5,808910184127106E-004	1,000000000000000E+000
4,8457730E-001	-8,352673030128390E-004	1,000000000000000E+000
4,8158401E-001	-1,071338771089153E-003	1,000000000000000E+000
4,7857657E-001	-1,318308797304203E-003	1,000000000000000E+000
4,7559425E-001	-1,594872773785845E-003	1,000000000000000E+000
4,7258022E-001	-1,904807662319253E-003	1,000000000000000E+000
4,6960032E-001	-2,260966983636613E-003	1,000000000000000E+000
4,6662295E-001	-2,647468987808772E-003	1,000000000000000E+000
4,6363494E-001	-3,105397961801842E-003	1,000000000000000E+000
4,6061519E-001	-3,661301142159665E-003	1,000000000000000E+000
4,5760489E-001	-4,346612495670615E-003	1,000000000000000E+000
4,5459566E-001	-5,206369414311546E-003	1,000000000000000E+000
4,5156416E-001	-6,306568911083194E-003	1,000000000000000E+000
4,4859964E-001	-7,824850946365480E-003	1,000000000000000E+000
4,4552365E-001	-9,818522158834345E-003	1,000000000000000E+000
4,4253874E-001	-1,233803223396966E-002	1,000000000000000E+000
4,3951151E-001	-1,506264758393461E-002	1,000000000000000E+000
4,3648002E-001	-1,769587961318556E-002	1,000000000000000E+000
4,3340501E-001	-1,971760197054768E-002	1,000000000000000E+000
4,3045527E-001	-2,077698153010705E-002	1,000000000000000E+000
4,2749384E-001	-2,063837233794091E-002	1,000000000000000E+000
4,2449948E-001	-1,905711206407959E-002	1,000000000000000E+000
4,2147654E-001	-1,639851918676340E-002	1,000000000000000E+000
4,1845107E-001	-1,337445926225389E-002	1,000000000000000E+000
4,1543901E-001	-1,046538814615098E-002	1,000000000000000E+000
4,1248435E-001	-8,224168562174616E-003	1,000000000000000E+000
4,0951934E-001	-6,656645030924169E-003	1,000000000000000E+000
4,0643153E-001	-5,599397402774126E-003	1,000000000000000E+000
4,0346593E-001	-4,832009191680517E-003	1,000000000000000E+000
4,0025499E-001	-4,013180843631788E-003	1,000000000000000E+000
3,9724365E-001	-3,561518775623100E-003	1,000000000000000E+000
3,9432466E-001	-3,204324931272429E-003	1,000000000000000E+000
3,9127088E-001	-2,900486824551075E-003	1,000000000000000E+000
3,8828614E-001	-2,642997947228214E-003	1,000000000000000E+000
3,8528115E-001	-2,427545342669261E-003	1,000000000000000E+000
3,8228577E-001	-2,254280757862895E-003	1,000000000000000E+000
3,7931058E-001	-2,108426726429267E-003	1,000000000000000E+000
3,7632477E-001	-1,971572222217943E-003	1,000000000000000E+000
3,7336650E-001	-1,861283598474178E-003	1,000000000000000E+000
3,7032548E-001	-1,764554988520006E-003	1,000000000000000E+000
3,6735129E-001	-1,688078574152145E-003	1,000000000000000E+000
3,6430708E-001	-1,617439615388024E-003	1,000000000000000E+000
3,6131695E-001	-1,567096270670580E-003	1,000000000000000E+000
3,5831520E-001	-1,532785394124280E-003	1,000000000000000E+000
3,5529539E-001	-1,490137013113742E-003	1,000000000000000E+000
3,5234365E-001	-1,465553497334415E-003	1,000000000000000E+000
3,4932268E-001	-1,440789837967908E-003	1,000000000000000E+000
3,4626994E-001	-1,419213048300626E-003	1,000000000000000E+000
3,4331170E-001	-1,406784801452031E-003	1,000000000000000E+000
3,4025788E-001	-1,397097441477684E-003	1,000000000000000E+000
3,3729967E-001	-1,386782689627979E-003	1,000000000000000E+000
3,3432230E-001	-1,368701770464005E-003	1,000000000000000E+000
3,3131206E-001	-1,377802495087031E-003	1,000000000000000E+000
3,2833683E-001	-1,364376170105610E-003	1,000000000000000E+000
3,2523188E-001	-1,359561305230760E-003	1,000000000000000E+000
3,2230574E-001	-1,361411115968145E-003	1,000000000000000E+000
3,1929865E-001	-1,355096031026022E-003	1,000000000000000E+000
3,1629691E-001	-1,360511476732454E-003	1,000000000000000E+000
3,1331211E-001	-1,364973026708977E-003	1,000000000000000E+000
3,1032628E-001	-1,360764692588241E-003	1,000000000000000E+000
3,0728948E-001	-1,357996321246054E-003	1,000000000000000E+000
3,0427918E-001	-1,367707120363125E-003	1,000000000000000E+000
3,0125192E-001	-1,357220034017344E-003	1,000000000000000E+000
2,9823959E-001	-1,354125937207854E-003	1,000000000000000E+000
2,9531002E-001	-1,346635310763143E-003	1,000000000000000E+000
2,9230282E-001	-1,342044648341412E-003	1,000000000000000E+000
2,8929269E-001	-1,339724426467091E-003	1,000000000000000E+000
2,8630471E-001	-1,320264151816075E-003	1,000000000000000E+000
2,8325304E-001	-1,307007392738123E-003	1,000000000000000E+000
2,8029799E-001	-1,293477330964250E-003	1,000000000000000E+000
2,7731320E-001	-1,277347788184784E-003	1,000000000000000E+000
2,7424562E-001	-1,261699740512798E-003	1,000000000000000E+000
2,7130330E-001	-1,240215478868522E-003	1,000000000000000E+000
2,6828671E-001	-1,227684414571944E-003	1,000000000000000E+000
2,6530570E-001	-1,198710422242078E-003	1,000000000000000E+000
2,6224706E-001	-1,186425700859490E-003	1,000000000000000E+000
2,5934330E-001	-1,165217010206427E-003	1,000000000000000E+000
2,5623396E-001	-1,135997487466835E-003	1,000000000000000E+000
2,5329483E-001	-1,118312135456322E-003	1,000000000000000E+000
2,5033024E-001	-1,087539099309174E-003	1,000000000000000E+000
2,4732319E-001	-1,071900804893377E-003	1,000000000000000E+000
2,4430549E-001	-1,042722233605691E-003	1,000000000000000E+000
2,4132392E-001	-1,029849729720212E-003	1,000000000000000E+000
2,3830515E-001	-9,954784656899919E-004	1,000000000000000E+000
2,3534691E-001	-9,717194660964178E-004	1,000000000000000E+000
2,3233758E-001	-9,502056239229905E-004	1,000000000000000E+000
2,2929029E-001	-9,279594094946716E-004	1,000000000000000E+000
2,2629383E-001	-9,079598939253346E-004	1,000000000000000E+000
2,2335365E-001	-8,706837509958876E-004	1,000000000000000E+000
2,2033703E-001	-8,604894316875493E-004	1,000000000000000E+000
2,1730870E-001	-8,369374769253268E-004	1,000000000000000E+000
2,1432926E-001	-8,282846902972832E-004	1,000000000000000E+000
2,1132748E-001	-8,151298707429963E-004	1,000000000000000E+000
2,0834272E-001	-8,040898126579609E-004	1,000000000000000E+000
2,0531230E-001	-8,109640076682627E-004	1,000000000000000E+000
2,0233706E-001	-8,032111572922745E-004	1,000000000000000E+000
1,9938335E-001	-8,103232447187678E-004	1,000000000000000E+000
1,9633566E-001	-8,178218347134631E-004	1,000000000000000E+000
1,9333073E-001	-8,371407220239347E-004	1,000000000000000E+000
1,9032471E-001	-8,583616109303178E-004	1,000000000000000E+000
1,8731338E-001	-8,749477962991421E-004	1,000000000000000E+000
1,8434455E-001	-9,044364611211632E-004	1,000000000000000E+000
1,8132153E-001	-9,221750638361108E-004	1,000000000000000E+000
1,7836119E-001	-9,636762359092697E-004	1,000000000000000E+000
1,7529252E-001	-9,864277751876630E-004	1,000000000000000E+000
1,7232679E-001	-1,015614021273401E-003	1,000000000000000E+000
1,6929324E-001	-1,042726455616213E-003	1,000000000000000E+000
1,6632757E-001	-1,055569737688529E-003	1,000000000000000E+000
1,6325891E-001	-1,091909834527977E-003	1,000000000000000E+000
1,6028477E-001	-1,116984550131837E-003	1,000000000000000E+000
1,5730104E-001	-1,130217575036056E-003	1,000000000000000E+000
1,5432477E-001	-1,137816454357808E-003	1,000000000000000E+000
1,5128478E-001	-1,149952286590929E-003	1,000000000000000E+000
1,4831273E-001	-1,161342610884153E-003	1,000000000000000E+000
1,4535661E-001	-1,161239114511786E-003	1,000000000000000E+000
1,4232725E-001	-1,157593792473345E-003	1,000000000000000E+000
1,3928524E-001	-1,152692241114601E-003	1,000000000000000E+000
1,3626215E-001	-1,150181863553384E-003	1,000000000000000E+000
1,3326463E-001	-1,142066820283293E-003	1,000000000000000E+000
1,3032657E-001	-1,129609870491353E-003	1,000000000000000E+000
1,2729932E-001	-1,121078719932189E-003	1,000000000000000E+000
1,2428270E-001	-1,099915160679935E-003	1,000000000000000E+000
1,2126184E-001	-1,084425405681277E-003	1,000000000000000E+000
1,1827599E-001	-1,053705566205086E-003	1,000000000000000E+000
1,1535808E-001	-1,047455793508756E-003	1,000000000000000E+000
1,1236989E-001	-1,013549039691861E-003	1,000000000000000E+000
1,0930467E-001	-9,922945522488763E-004	1,000000000000000E+000
1,0631710E-001	-9,711514382771368E-004	1,000000000000000E+000
1,0330856E-001	-9,437519758830181E-004	1,000000000000000E+000
1,0036201E-001	-9,203918490127520E-004	1,000000000000000E+000
9,7361319E-002	-8,939332983160520E-004	1,000000000000000E+000
9,4379731E-002	-8,762508372612788E-004	1,000000000000000E+000
9,1406643E-002	-8,590605230849521E-004	1,000000000000000E+000
8,8346474E-002	-8,456243992034894E-004	1,000000000000000E+000
8,5355319E-002	-8,227058317881990E-004	1,000000000000000E+000
8,2351439E-002	-8,165874018656837E-004	1,000000000000000E+000
7,9381593E-002	-8,052103398636136E-004	1,000000000000000E+000
7,6357462E-002	-7,997410554837926E-004	1,000000000000000E+000
7,3365249E-002	-8,072682735690319E-004	1,000000000000000E+000
7,0361361E-002	-8,147306399056333E-004	1,000000000000000E+000
6,7371286E-002	-8,178130473365129E-004	1,000000000000000E+000
6,4354651E-002	-8,322301676214131E-004	1,000000000000000E+000
6,1394297E-002	-8,451741103564954E-004	1,000000000000000E+000
5,8365986E-002	-8,745108400422651E-004	1,000000000000000E+000
5,5395011E-002	-8,871907158371981E-004	1,000000000000000E+000
5,2430037E-002	-9,130678225559921E-004	1,000000000000000E+000
4,9347952E-002	-9,412144813588895E-004	1,000000000000000E+000
4,6375219E-002	-9,599922586935733E-004	1,000000000000000E+000
4,3329559E-002	-9,935528194509186E-004	1,000000000000000E+000
4,0337350E-002	-1,021058038593788E-003	1,000000000000000E+000
3,7353635E-002	-1,048741474357757E-003	1,000000000000000E+000
3,4338068E-002	-1,078113928978918E-003	1,000000000000000E+000
3,1329930E-002	-1,121530623645818E-003	1,000000000000000E+000
2,8334536E-002	-1,139459053545854E-003	1,000000000000000E+000
2,5309414E-002	-1,176609454209002E-003	1,000000000000000E+000
2,2291720E-002	-1,197692248912851E-003	1,000000000000000E+000
1,9309957E-002	-1,215698915531069E-003	1,000000000000000E+000
1,6340218E-002	-1,232267785890306E-003	1,000000000000000E+000
1,3328899E-002	-1,245494314453293E-003	1,000000000000000E+000
1,0344124E-002	-1,264170632595548E-003	1,000000000000000E+000
7,2712176E-003	-1,267991619002602E-003	1,000000000000000E+000
4,3214830E-003	-1,281781718040510E-003	1,000000000000000E+000
1,3260889E-003	-1,273058141781218E-003	1,000000000000000E+000
-9,4625968E-005	-1,283245228514009E-003	1,000000000000000E+000