File: fig_4_nife_ceo2/Activity_2_CV/Ni50Fe50_Activity2_CV2_02_CV_C01.txt
Ewe/V	<I>/mA	cycle number
5,4310163E-005	-4,952348172664642E-001	1,000000000000000E+000
2,6175433E-003	-2,508840280059155E-002	1,000000000000000E+000
5,6437296E-003	-1,338888964084635E-002	1,000000000000000E+000
8,6178863E-003	-9,438968323292066E-003	1,000000000000000E+000
1,1614343E-002	-7,331229968283171E-003	1,000000000000000E+000
1,4643714E-002	-5,976042851870117E-003	1,000000000000000E+000
1,7584955E-002	-5,043006360532440E-003	1,000000000000000E+000
2,0756612E-002	-4,264911749528762E-003	1,000000000000000E+000
2,3817835E-002	-3,715304481016070E-003	1,000000000000000E+000
2,6821725E-002	-3,278266600240245E-003	1,000000000000000E+000
2,9836234E-002	-2,907370630092200E-003	1,000000000000000E+000
3,2869849E-002	-2,601300096550453E-003	1,000000000000000E+000
3,5806842E-002	-2,347837025681119E-003	1,000000000000000E+000
3,8812857E-002	-2,122078091962065E-003	1,000000000000000E+000
4,1839045E-002	-1,927797490224176E-003	1,000000000000000E+000
4,4810012E-002	-1,738162181800659E-003	1,000000000000000E+000
4,7838327E-002	-1,588988944412554E-003	1,000000000000000E+000
5,0862383E-002	-1,460658783367833E-003	1,000000000000000E+000
5,3846102E-002	-1,324695628948130E-003	1,000000000000000E+000
5,6835126E-002	-1,218282538747961E-003	1,000000000000000E+000
5,9789110E-002	-1,101704069822807E-003	1,000000000000000E+000
6,2813178E-002	-1,016133457761870E-003	1,000000000000000E+000
6,5848917E-002	-9,352123317570189E-004	1,000000000000000E+000
6,8893149E-002	-8,503198013862674E-004	1,000000000000000E+000
7,1786605E-002	-7,815962022822715E-004	1,000000000000000E+000
7,4839346E-002	-7,120019952609399E-004	1,000000000000000E+000
7,7825174E-002	-6,585395499799120E-004	1,000000000000000E+000
8,0848180E-002	-6,120547787509733E-004	1,000000000000000E+000
8,3849944E-002	-5,482421126467747E-004	1,000000000000000E+000
8,6842157E-002	-5,061406221488155E-004	1,000000000000000E+000
8,9856662E-002	-4,613436076376541E-004	1,000000000000000E+000
9,2814893E-002	-4,154497834042356E-004	1,000000000000000E+000
9,5799662E-002	-3,833123293522853E-004	1,000000000000000E+000
9,8842829E-002	-3,386702087966906E-004	1,000000000000000E+000
1,0181911E-001	-3,055673403716862E-004	1,000000000000000E+000
1,0481452E-001	-2,601835233209983E-004	1,000000000000000E+000
1,0781097E-001	-2,387244981480333E-004	1,000000000000000E+000
1,1083398E-001	-2,136854551681518E-004	1,000000000000000E+000
1,1382086E-001	-1,811349780278291E-004	1,000000000000000E+000
1,1680353E-001	-1,563523506215901E-004	1,000000000000000E+000
1,1983820E-001	-1,279291472471459E-004	1,000000000000000E+000
1,2274333E-001	-1,100577236067693E-004	1,000000000000000E+000
1,2583111E-001	-9,019678980399680E-005	1,000000000000000E+000
1,2878084E-001	-6,150224223836008E-005	1,000000000000000E+000
1,3183889E-001	-4,526625094692966E-005	1,000000000000000E+000
1,3481623E-001	-1,349666128200035E-005	1,000000000000000E+000
1,3775535E-001	-4,888547525049318E-006	1,000000000000000E+000
1,4080064E-001	2,570543255473905E-006	1,000000000000000E+000
1,4382046E-001	3,024485757648841E-005	1,000000000000000E+000
1,4676808E-001	4,231949120251570E-005	1,000000000000000E+000
1,4984842E-001	6,112018187479713E-005	1,000000000000000E+000
1,5279283E-001	7,146693128107608E-005	1,000000000000000E+000
1,5578292E-001	6,971446251961410E-005	1,000000000000000E+000
1,5878044E-001	9,234808846951071E-005	1,000000000000000E+000
1,6178645E-001	1,052799957445491E-004	1,000000000000000E+000
1,6481689E-001	1,233398020265199E-004	1,000000000000000E+000
1,6781229E-001	1,302253634947630E-004	1,000000000000000E+000
1,7079601E-001	1,440351672955713E-004	1,000000000000000E+000
1,7382325E-001	1,751722610881845E-004	1,000000000000000E+000
1,7681968E-001	1,779822895031783E-004	1,000000000000000E+000
1,7980979E-001	1,928915371355814E-004	1,000000000000000E+000
1,8279138E-001	2,018560230990707E-004	1,000000000000000E+000
1,8582499E-001	2,064562252551553E-004	1,000000000000000E+000
1,8878961E-001	2,286829350741076E-004	1,000000000000000E+000
1,9178393E-001	2,358816434498153E-004	1,000000000000000E+000
1,9486108E-001	2,637737463699768E-004	1,000000000000000E+000
1,9776516E-001	2,778169863860691E-004	1,000000000000000E+000
2,0081683E-001	2,817717972026265E-004	1,000000000000000E+000
2,0379524E-001	3,058149065226956E-004	1,000000000000000E+000
2,0678319E-001	3,166290984496680E-004	1,000000000000000E+000
2,0977114E-001	3,353810727210137E-004	1,000000000000000E+000
2,1277612E-001	3,395446589372977E-004	1,000000000000000E+000
2,1574917E-001	3,504088210006841E-004	1,000000000000000E+000
2,1883062E-001	3,793582003432791E-004	1,000000000000000E+000
2,2181641E-001	3,876868902461005E-004	1,000000000000000E+000
2,2484155E-001	4,200567375778636E-004	1,000000000000000E+000
2,2779660E-001	4,234089634201463E-004	1,000000000000000E+000
2,3083872E-001	4,289119769139652E-004	1,000000000000000E+000
2,3383519E-001	4,537528327468827E-004	1,000000000000000E+000
2,3681356E-001	4,601801808808582E-004	1,000000000000000E+000
2,3982278E-001	4,915489304274639E-004	1,000000000000000E+000
2,4280861E-001	4,912967463470107E-004	1,000000000000000E+000
2,4579231E-001	5,022119065563064E-004	1,000000000000000E+000
2,4881637E-001	5,192519251740356E-004	1,000000000000000E+000
2,5179267E-001	5,279785651724368E-004	1,000000000000000E+000
2,5481674E-001	5,497618530956906E-004	1,000000000000000E+000
2,5779513E-001	5,571045768809207E-004	1,000000000000000E+000
2,6082346E-001	5,640701887894310E-004	1,000000000000000E+000
2,6379231E-001	5,885299337654842E-004	1,000000000000000E+000
2,6679724E-001	5,875852153320897E-004	1,000000000000000E+000
2,6983935E-001	5,994428014459269E-004	1,000000000000000E+000
2,7277419E-001	6,026458632441322E-004	1,000000000000000E+000
2,7576324E-001	6,099953916129884E-004	1,000000000000000E+000
2,7881277E-001	6,304571129177230E-004	1,000000000000000E+000
2,8180608E-001	6,259939789685191E-004	1,000000000000000E+000
2,8479722E-001	6,400193765938563E-004	1,000000000000000E+000
2,8782022E-001	6,474435862166062E-004	1,000000000000000E+000
2,9080498E-001	6,381425229265492E-004	1,000000000000000E+000
2,9374093E-001	6,478981164601740E-004	1,000000000000000E+000
2,9679790E-001	6,444964536949189E-004	1,000000000000000E+000
2,9979542E-001	6,523995344689948E-004	1,000000000000000E+000
3,0279294E-001	6,506083873834446E-004	1,000000000000000E+000
3,0576923E-001	6,415716888652084E-004	1,000000000000000E+000
3,0878800E-001	6,517299409588050E-004	1,000000000000000E+000
3,1184602E-001	6,395672657010599E-004	1,000000000000000E+000
3,1474906E-001	6,497462946958438E-004	1,000000000000000E+000
3,1780177E-001	6,476803042468489E-004	1,000000000000000E+000
3,2081097E-001	6,367529961498640E-004	1,000000000000000E+000
3,2372886E-001	6,495282261699945E-004	1,000000000000000E+000
3,2680067E-001	6,408080840265840E-004	1,000000000000000E+000
3,2974619E-001	6,540644087455427E-004	1,000000000000000E+000
3,3275643E-001	6,514735908069065E-004	1,000000000000000E+000
3,3578366E-001	6,440979044547469E-004	1,000000000000000E+000
3,3877906E-001	6,557747261290390E-004	1,000000000000000E+000
3,4177235E-001	6,521972729899399E-004	1,000000000000000E+000
3,4479004E-001	6,664295688550599E-004	1,000000000000000E+000
3,4781727E-001	6,648227962307036E-004	1,000000000000000E+000
3,5077661E-001	6,588343541741263E-004	1,000000000000000E+000
3,5374540E-001	6,816437413206308E-004	1,000000000000000E+000
3,5677692E-001	6,803180085729211E-004	1,000000000000000E+000
3,5979351E-001	6,907679592518595E-004	1,000000000000000E+000
3,6282822E-001	6,915140852851893E-004	1,000000000000000E+000
3,6579388E-001	6,936730796972034E-004	1,000000000000000E+000
3,6879355E-001	7,005482898575863E-004	1,000000000000000E+000
3,7178361E-001	6,975830347857176E-004	1,000000000000000E+000
3,7476629E-001	7,173429006624727E-004	1,000000000000000E+000
3,7773514E-001	7,217132521322653E-004	1,000000000000000E+000
3,8078892E-001	7,114264341398576E-004	1,000000000000000E+000
3,8373759E-001	7,344371984437109E-004	1,000000000000000E+000
3,8682005E-001	7,348526624209768E-004	1,000000000000000E+000
3,8982183E-001	7,505108657294111E-004	1,000000000000000E+000
3,9277577E-001	7,509131476967062E-004	1,000000000000000E+000
3,9573297E-001	7,492926605480684E-004	1,000000000000000E+000
3,9877081E-001	7,703262152170196E-004	1,000000000000000E+000
4,0176830E-001	7,734154830757387E-004	1,000000000000000E+000
4,0477437E-001	7,969112407419151E-004	1,000000000000000E+000
4,0781009E-001	7,981870103672441E-004	1,000000000000000E+000
4,1079378E-001	8,064185152382164E-004	1,000000000000000E+000
4,1379768E-001	8,341870555355728E-004	1,000000000000000E+000
4,1679949E-001	8,441462006572083E-004	1,000000000000000E+000
4,1979957E-001	8,744356786280667E-004	1,000000000000000E+000
4,2280722E-001	8,922504434571137E-004	1,000000000000000E+000
4,2576757E-001	9,148006929226441E-004	1,000000000000000E+000
4,2880967E-001	9,593557903111244E-004	1,000000000000000E+000
4,3177006E-001	9,911674832501632E-004	1,000000000000000E+000
4,3475911E-001	1,045979639736176E-003	1,000000000000000E+000
4,3775022E-001	1,086781630519889E-003	1,000000000000000E+000
4,4078594E-001	1,124051044005230E-003	1,000000000000000E+000
4,4376329E-001	1,199671284289284E-003	1,000000000000000E+000
4,4680014E-001	1,256100406988776E-003	1,000000000000000E+000
4,4976512E-001	1,335116836726245E-003	1,000000000000000E+000
4,5280048E-001	1,407112993873194E-003	1,000000000000000E+000
4,5576718E-001	1,490742187770031E-003	1,000000000000000E+000
4,5877850E-001	1,607983727631096E-003	1,000000000000000E+000
4,6179304E-001	1,719566716302016E-003	1,000000000000000E+000
4,6476451E-001	1,851421841406860E-003	1,000000000000000E+000
4,6774986E-001	1,982838345807449E-003	1,000000000000000E+000
4,7080153E-001	2,141199824802157E-003	1,000000000000000E+000
4,7378200E-001	2,330875240663353E-003	1,000000000000000E+000
4,7677213E-001	2,532815104656003E-003	1,000000000000000E+000
4,7977918E-001	2,768504309994563E-003	1,000000000000000E+000
4,8276076E-001	3,026173100905777E-003	1,000000000000000E+000
4,8577946E-001	3,312475607973847E-003	1,000000000000000E+000
4,8875475E-001	3,632180498697256E-003	1,000000000000000E+000
4,9172783E-001	3,963465209438702E-003	1,000000000000000E+000
4,9471936E-001	4,313905340982714E-003	1,000000000000000E+000
4,9780467E-001	4,670118126525097E-003	1,000000000000000E+000
5,0076604E-001	5,042677234388129E-003	1,000000000000000E+000
5,0379968E-001	5,420021856286317E-003	1,000000000000000E+000
5,0677806E-001	5,767755528726909E-003	1,000000000000000E+000
5,0978774E-001	6,117900241674148E-003	1,000000000000000E+000
5,1271790E-001	6,479095954679215E-003	1,000000000000000E+000
5,1581526E-001	6,876831199253725E-003	1,000000000000000E+000
5,1877451E-001	7,339773220780939E-003	1,000000000000000E+000
5,2177310E-001	7,871509491571081E-003	1,000000000000000E+000
5,2479064E-001	8,504050623152556E-003	1,000000000000000E+000
5,2770764E-001	9,247204237562118E-003	1,000000000000000E+000
5,3073621E-001	1,010949673931016E-002	1,000000000000000E+000
5,3384709E-001	1,113748615598378E-002	1,000000000000000E+000
5,3685522E-001	1,221993246651359E-002	1,000000000000000E+000
5,3986794E-001	1,343447231343553E-002	1,000000000000000E+000
5,4280561E-001	1,473209925870732E-002	1,000000000000000E+000
5,4585409E-001	1,619561231756356E-002	1,000000000000000E+000
5,4883885E-001	1,784354279912240E-002	1,000000000000000E+000
5,5181515E-001	1,971789796521478E-002	1,000000000000000E+000
5,5489129E-001	2,195497704644306E-002	1,000000000000000E+000
5,5781764E-001	2,461044318340996E-002	1,000000000000000E+000
5,6082153E-001	2,787258040451379E-002	1,000000000000000E+000
5,6386572E-001	3,182115426494012E-002	1,000000000000000E+000
5,6690049E-001	3,651629364917316E-002	1,000000000000000E+000
5,6980592E-001	4,196168762216784E-002	1,000000000000000E+000
5,7291037E-001	4,832589183617242E-002	1,000000000000000E+000
5,7580912E-001	5,550513845707938E-002	1,000000000000000E+000
5,7888943E-001	6,353022813978615E-002	1,000000000000000E+000
5,8189869E-001	7,334626710376035E-002	1,000000000000000E+000
5,8479470E-001	8,385166752825479E-002	1,000000000000000E+000
5,8783954E-001	9,622374595915861E-002	1,000000000000000E+000
5,9092134E-001	1,094732867078667E-001	1,000000000000000E+000
5,9392160E-001	1,251113260335918E-001	1,000000000000000E+000
5,9694678E-001	1,408114600398676E-001	1,000000000000000E+000
5,9996444E-001	1,591695568750271E-001	1,000000000000000E+000
6,0296512E-001	1,790060628334365E-001	1,000000000000000E+000
6,0593927E-001	2,000187155906772E-001	1,000000000000000E+000
6,0892302E-001	2,231077455774027E-001	1,000000000000000E+000
6,1187595E-001	2,482357140685394E-001	1,000000000000000E+000
6,1494738E-001	2,751045214890382E-001	1,000000000000000E+000
6,1794853E-001	3,039264969396792E-001	1,000000000000000E+000
6,2093645E-001	3,360207392042184E-001	1,000000000000000E+000
6,2397224E-001	3,701076100658538E-001	1,000000000000000E+000
6,2695378E-001	4,055617159684421E-001	1,000000000000000E+000
6,2993431E-001	4,449998352596385E-001	1,000000000000000E+000
6,3293606E-001	4,867706794688793E-001	1,000000000000000E+000
6,3593036E-001	5,277554460858238E-001	1,000000000000000E+000
6,3894278E-001	5,788768358156915E-001	1,000000000000000E+000
6,4195514E-001	6,306869807123050E-001	1,000000000000000E+000
6,4491218E-001	6,792521866620724E-001	1,000000000000000E+000
6,4795130E-001	7,396748768474044E-001	1,000000000000000E+000
6,5094346E-001	8,008093628990132E-001	1,000000000000000E+000
6,5397602E-001	8,615785934487201E-001	1,000000000000000E+000
6,5692997E-001	9,299697663440725E-001	1,000000000000000E+000
6,5994817E-001	1,001487262025218E+000	1,000000000000000E+000
6,6294950E-001	1,078957768355634E+000	1,000000000000000E+000
6,6608399E-001	1,157385385259488E+000	1,000000000000000E+000
6,6902095E-001	1,242578883095730E+000	1,000000000000000E+000
6,7199725E-001	1,329093018466455E+000	1,000000000000000E+000
6,7500645E-001	1,418514556920922E+000	1,000000000000000E+000
6,7809105E-001	1,514707795811009E+000	1,000000000000000E+000
6,8102801E-001	1,609381986414490E+000	1,000000000000000E+000
6,8406171E-001	1,711552720880157E+000	1,000000000000000E+000
6,8700075E-001	1,820189875894798E+000	1,000000000000000E+000
6,9004130E-001	1,926472134001386E+000	1,000000000000000E+000
6,9303828E-001	2,039328518604481E+000	1,000000000000000E+000
6,9604743E-001	2,155868217146306E+000	1,000000000000000E+000
6,9905877E-001	2,275098041460218E+000	1,000000000000000E+000
7,0200962E-001	2,400475320159170E+000	1,000000000000000E+000
7,0503050E-001	2,532849252359117E+000	1,000000000000000E+000
7,0803541E-001	2,656425288542604E+000	1,000000000000000E+000
7,1104145E-001	2,794714771616626E+000	1,000000000000000E+000
7,1408987E-001	2,931379224302546E+000	1,000000000000000E+000
7,1705657E-001	3,072728792268805E+000	1,000000000000000E+000
7,2004032E-001	3,216230874197251E+000	1,000000000000000E+000
7,2299325E-001	3,367206940169780E+000	1,000000000000000E+000
7,2603220E-001	3,517449860940434E+000	1,000000000000000E+000
7,2901589E-001	3,664264397252165E+000	1,000000000000000E+000
7,3198575E-001	3,820021558713464E+000	1,000000000000000E+000
7,3505700E-001	3,986488949728624E+000	1,000000000000000E+000
7,3805833E-001	4,151298208200203E+000	1,000000000000000E+000
7,4107391E-001	4,310371880155589E+000	1,000000000000000E+000
7,4407780E-001	4,480742982725971E+000	1,000000000000000E+000
7,4700737E-001	4,648627279262952E+000	1,000000000000000E+000
7,4999219E-001	4,823396661451879E+000	1,000000000000000E+000
7,5303853E-001	4,991300660804306E+000	1,000000000000000E+000
7,5603503E-001	5,174550629594712E+000	1,000000000000000E+000
7,5907815E-001	5,359323514257974E+000	1,000000000000000E+000
7,6203215E-001	5,509411797231548E+000	1,000000000000000E+000
7,6496273E-001	5,728232454043940E+000	1,000000000000000E+000
7,6799005E-001	5,910872135775989E+000	1,000000000000000E+000
7,7108312E-001	6,102035595209699E+000	1,000000000000000E+000
7,7397984E-001	6,289663602232650E+000	1,000000000000000E+000
7,7699745E-001	6,485413941058447E+000	1,000000000000000E+000
7,8001297E-001	6,678794316829197E+000	1,000000000000000E+000
7,8302002E-001	6,875606220325352E+000	1,000000000000000E+000
7,8599095E-001	7,066402724270404E+000	1,000000000000000E+000
7,8903413E-001	7,267453463101873E+000	1,000000000000000E+000
7,9204440E-001	7,463348553902392E+000	1,000000000000000E+000
7,9505521E-001	7,671743664984461E+000	1,000000000000000E+000
7,9804379E-001	7,875304030993647E+000	1,000000000000000E+000
8,0107516E-001	8,078294656714611E+000	1,000000000000000E+000
8,0406427E-001	8,284661039743781E+000	1,000000000000000E+000
8,0706817E-001	8,498048079662595E+000	1,000000000000000E+000
8,0997115E-001	8,707772422877611E+000	1,000000000000000E+000
8,1303132E-001	8,913641971322733E+000	1,000000000000000E+000
8,1598526E-001	9,120449026020175E+000	1,000000000000000E+000
8,1905395E-001	9,332132040778475E+000	1,000000000000000E+000
8,2199734E-001	9,544199028928809E+000	1,000000000000000E+000
8,2492489E-001	9,760160595991806E+000	1,000000000000000E+000
8,2796580E-001	9,972242099898210E+000	1,000000000000000E+000
8,3102286E-001	1,019336917232764E+001	1,000000000000000E+000
8,3405316E-001	1,041333689407159E+001	1,000000000000000E+000
8,3701462E-001	1,061896125901314E+001	1,000000000000000E+000
8,4001130E-001	1,085010688305869E+001	1,000000000000000E+000
8,4310317E-001	1,106808368851539E+001	1,000000000000000E+000
8,4608155E-001	1,129397403518089E+001	1,000000000000000E+000
8,4906948E-001	1,152624367133564E+001	1,000000000000000E+000
8,5209352E-001	1,174827273625908E+001	1,000000000000000E+000
8,5509878E-001	1,195445569950982E+001	1,000000000000000E+000
8,5808861E-001	1,219509355024411E+001	1,000000000000000E+000
8,6113173E-001	1,240347183426494E+001	1,000000000000000E+000
8,6413348E-001	1,264165440438285E+001	1,000000000000000E+000
8,6702806E-001	1,286931995145316E+001	1,000000000000000E+000
8,7014920E-001	1,309185979448646E+001	1,000000000000000E+000
8,7310600E-001	1,333471253088541E+001	1,000000000000000E+000
8,7613630E-001	1,356189144522694E+001	1,000000000000000E+000
8,7914866E-001	1,379912943418335E+001	1,000000000000000E+000
8,8211757E-001	1,402763995602561E+001	1,000000000000000E+000
8,8509178E-001	1,424879572979906E+001	1,000000000000000E+000
8,8810939E-001	1,449776563622785E+001	1,000000000000000E+000
8,9105386E-001	1,473117002662343E+001	1,000000000000000E+000
8,9408642E-001	1,496890690469957E+001	1,000000000000000E+000
8,9713061E-001	1,520739042880587E+001	1,000000000000000E+000
9,0014005E-001	1,544029131387209E+001	1,000000000000000E+000
9,0307999E-001	1,568282197324604E+001	1,000000000000000E+000
9,0613794E-001	1,591871776223999E+001	1,000000000000000E+000
9,0910274E-001	1,617231122868930E+001	1,000000000000000E+000
9,1217560E-001	1,639605496732557E+001	1,000000000000000E+000
9,1516054E-001	1,661221825344933E+001	1,000000000000000E+000
9,1806012E-001	1,687801549994221E+001	1,000000000000000E+000
9,2108631E-001	1,712441391577249E+001	1,000000000000000E+000
9,2411357E-001	1,738408596269659E+001	1,000000000000000E+000
9,2710054E-001	1,761812157168674E+001	1,000000000000000E+000
9,3009388E-001	1,788633579195923E+001	1,000000000000000E+000
9,3309665E-001	1,809886727770977E+001	1,000000000000000E+000
9,3612176E-001	1,836114507791943E+001	1,000000000000000E+000
9,3912667E-001	1,863946209743170E+001	1,000000000000000E+000
9,4202328E-001	1,889127524437006E+001	1,000000000000000E+000
9,4512320E-001	1,913159399075880E+001	1,000000000000000E+000
9,4811493E-001	1,939762362493144E+001	1,000000000000000E+000
9,5110083E-001	1,964304160328417E+001	1,000000000000000E+000
9,5405483E-001	1,989672837600689E+001	1,000000000000000E+000
9,5705754E-001	2,018072186332722E+001	1,000000000000000E+000
9,6008933E-001	2,040518153306104E+001	1,000000000000000E+000
9,6311849E-001	2,067837175841771E+001	1,000000000000000E+000
9,6603632E-001	2,096050580964334E+001	1,000000000000000E+000
9,6912628E-001	2,120106319045796E+001	1,000000000000000E+000
9,7210252E-001	2,141462522934362E+001	1,000000000000000E+000
9,7510988E-001	2,175510739674689E+001	1,000000000000000E+000
9,7805190E-001	2,191103353521994E+001	1,000000000000000E+000
9,8113114E-001	2,225664060334771E+001	1,000000000000000E+000
9,8402882E-001	2,251575148889543E+001	1,000000000000000E+000
9,8713040E-001	2,279465273124023E+001	1,000000000000000E+000
9,9007195E-001	2,303303072450927E+001	1,000000000000000E+000
9,9306077E-001	2,329384025884049E+001	1,000000000000000E+000
9,9608696E-001	2,353317536545455E+001	1,000000000000000E+000
9,9909192E-001	2,382040173612754E+001	1,000000000000000E+000
9,9922878E-001	2,378210080818796E+001	1,000000000000000E+000
9,9616766E-001	2,349046288893607E+001	1,000000000000000E+000
9,9315852E-001	2,313184809103564E+001	1,000000000000000E+000
9,9023765E-001	2,286013860254627E+001	1,000000000000000E+000
9,8714852E-001	2,252994851825451E+001	1,000000000000000E+000
9,8423916E-001	2,225319775810590E+001	1,000000000000000E+000
9,8121613E-001	2,191487845014819E+001	1,000000000000000E+000
9,7816235E-001	2,160313954712854E+001	1,000000000000000E+000
9,7514683E-001	2,136576658216347E+001	1,000000000000000E+000
9,7220558E-001	2,102595843384859E+001	1,000000000000000E+000
9,6915281E-001	2,077963481360291E+001	1,000000000000000E+000
9,6619356E-001	2,049921751630546E+001	1,000000000000000E+000
9,6321088E-001	2,018805471136994E+001	1,000000000000000E+000
9,6017307E-001	1,985609006879633E+001	1,000000000000000E+000
9,5722431E-001	1,958053640821896E+001	1,000000000000000E+000
9,5418972E-001	1,935403663514694E+001	1,000000000000000E+000
9,5122725E-001	1,907121803403709E+001	1,000000000000000E+000
9,4814056E-001	1,877594780151539E+001	1,000000000000000E+000
9,4514316E-001	1,852386707013326E+001	1,000000000000000E+000
9,4221765E-001	1,824741171276759E+001	1,000000000000000E+000
9,3919885E-001	1,796714605725542E+001	1,000000000000000E+000
9,3616945E-001	1,772209358674879E+001	1,000000000000000E+000
9,3317407E-001	1,736544625842922E+001	1,000000000000000E+000
9,3013734E-001	1,718431832119187E+001	1,000000000000000E+000
9,2714083E-001	1,692983979378701E+001	1,000000000000000E+000
9,2414546E-001	1,666389270488363E+001	1,000000000000000E+000
9,2117441E-001	1,642779287972957E+001	1,000000000000000E+000
9,1817695E-001	1,613742306145951E+001	1,000000000000000E+000
9,1519564E-001	1,592046656769024E+001	1,000000000000000E+000
9,1217560E-001	1,565038542128474E+001	1,000000000000000E+000
9,0923965E-001	1,540945914326879E+001	1,000000000000000E+000
9,0617621E-001	1,515198079974749E+001	1,000000000000000E+000
9,0319896E-001	1,492334112748003E+001	1,000000000000000E+000
9,0016341E-001	1,468241595218252E+001	1,000000000000000E+000
8,9723998E-001	1,443718357380830E+001	1,000000000000000E+000
8,9420736E-001	1,418432514237708E+001	1,000000000000000E+000
8,9111650E-001	1,394883057535915E+001	1,000000000000000E+000
8,8815820E-001	1,371173819230529E+001	1,000000000000000E+000
8,8521385E-001	1,348746714170233E+001	1,000000000000000E+000
8,8216746E-001	1,324167790258818E+001	1,000000000000000E+000
8,7924743E-001	1,302547157162171E+001	1,000000000000000E+000
8,7615967E-001	1,278841756071358E+001	1,000000000000000E+000
8,7319404E-001	1,257070070275373E+001	1,000000000000000E+000
8,7020528E-001	1,233895171823212E+001	1,000000000000000E+000
8,6718941E-001	1,212070021702323E+001	1,000000000000000E+000
8,6419725E-001	1,185385042307326E+001	1,000000000000000E+000
8,6119336E-001	1,166763250377716E+001	1,000000000000000E+000
8,5820431E-001	1,146106490195473E+001	1,000000000000000E+000
8,5516649E-001	1,122265826995429E+001	1,000000000000000E+000
8,5220081E-001	1,099987880551085E+001	1,000000000000000E+000
8,4919584E-001	1,078889466737671E+001	1,000000000000000E+000
8,4620261E-001	1,059059738004565E+001	1,000000000000000E+000
8,4317416E-001	1,035729189930046E+001	1,000000000000000E+000
8,4018236E-001	1,016224952894464E+001	1,000000000000000E+000
8,3713996E-001	9,937788722871886E+000	1,000000000000000E+000
8,3423489E-001	9,699588723125931E+000	1,000000000000000E+000
8,3117139E-001	9,533667764696148E+000	1,000000000000000E+000
8,2820368E-001	9,321266097411517E+000	1,000000000000000E+000
8,2513750E-001	9,105833908408755E+000	1,000000000000000E+000
8,2215130E-001	8,901127651232443E+000	1,000000000000000E+000
8,1918877E-001	8,707502478171975E+000	1,000000000000000E+000
8,1617963E-001	8,507075367195547E+000	1,000000000000000E+000
8,1316727E-001	8,309671098953459E+000	1,000000000000000E+000
8,1017876E-001	8,110974293346878E+000	1,000000000000000E+000
8,0722952E-001	7,913887028791459E+000	1,000000000000000E+000
8,0423838E-001	7,714361403602055E+000	1,000000000000000E+000
8,0116540E-001	7,518458187107086E+000	1,000000000000000E+000
7,9823160E-001	7,338783575428877E+000	1,000000000000000E+000
7,9512912E-001	7,141754473012597E+000	1,000000000000000E+000
7,9215062E-001	6,957821902842227E+000	1,000000000000000E+000
7,8917533E-001	6,776637550316710E+000	1,000000000000000E+000
7,8618318E-001	6,576845829381398E+000	1,000000000000000E+000
7,8319734E-001	6,401438307667533E+000	1,000000000000000E+000
7,8022009E-001	6,223754833074384E+000	1,000000000000000E+000
7,7722883E-001	6,041266072161335E+000	1,000000000000000E+000
7,7419317E-001	5,865276086154694E+000	1,000000000000000E+000
7,7123064E-001	5,688696425517954E+000	1,000000000000000E+000
7,6819807E-001	5,514296053758832E+000	1,000000000000000E+000
7,6520532E-001	5,335713268745053E+000	1,000000000000000E+000
7,6215953E-001	5,170989539279951E+000	1,000000000000000E+000
7,5925225E-001	5,008358966804158E+000	1,000000000000000E+000
7,5615710E-001	4,828723312100045E+000	1,000000000000000E+000
7,5315958E-001	4,673727586257236E+000	1,000000000000000E+000
7,5015831E-001	4,520640859816763E+000	1,000000000000000E+000
7,4712420E-001	4,353972375392893E+000	1,000000000000000E+000
7,4417865E-001	4,195138357596626E+000	1,000000000000000E+000
7,4109519E-001	4,038741123649269E+000	1,000000000000000E+000
7,3816025E-001	3,896428628877462E+000	1,000000000000000E+000
7,3507297E-001	3,737176609464065E+000	1,000000000000000E+000
7,3209727E-001	3,603355567302572E+000	1,000000000000000E+000
7,2907960E-001	3,455786883932394E+000	1,000000000000000E+000
7,2619998E-001	3,310474079685143E+000	1,000000000000000E+000
7,2311753E-001	3,180671595324185E+000	1,000000000000000E+000
7,2008479E-001	3,042912766699740E+000	1,000000000000000E+000
7,1714586E-001	2,901856736514432E+000	1,000000000000000E+000
7,1412921E-001	2,778092706926557E+000	1,000000000000000E+000
7,1110511E-001	2,649753990593680E+000	1,000000000000000E+000
7,0815217E-001	2,523814880472862E+000	1,000000000000000E+000
7,0514190E-001	2,405318680888811E+000	1,000000000000000E+000
7,0213592E-001	2,287837342255642E+000	1,000000000000000E+000
6,9916499E-001	2,171218633922048E+000	1,000000000000000E+000
6,9613874E-001	2,056673028926591E+000	1,000000000000000E+000
6,9313383E-001	1,952066023401130E+000	1,000000000000000E+000
6,9009757E-001	1,847652369045058E+000	1,000000000000000E+000
6,8711334E-001	1,746589709368955E+000	1,000000000000000E+000
6,8412000E-001	1,642551342190124E+000	1,000000000000000E+000
6,8119049E-001	1,551150016537331E+000	1,000000000000000E+000
6,7808676E-001	1,454911579274470E+000	1,000000000000000E+000
6,7518061E-001	1,367355096814918E+000	1,000000000000000E+000
6,7210770E-001	1,281592621706650E+000	1,000000000000000E+000
6,6913033E-001	1,196821445915977E+000	1,000000000000000E+000
6,6615194E-001	1,121728874700745E+000	1,000000000000000E+000
6,6311085E-001	1,051417257873315E+000	1,000000000000000E+000
6,6005814E-001	9,752615239648614E-001	1,000000000000000E+000
6,5712327E-001	9,083485824653579E-001	1,000000000000000E+000
6,5414381E-001	8,420209802112728E-001	1,000000000000000E+000
6,5113461E-001	7,831536690047773E-001	1,000000000000000E+000
6,4811695E-001	7,236312954452124E-001	1,000000000000000E+000
6,4516962E-001	6,684342678578798E-001	1,000000000000000E+000
6,4216119E-001	6,133426002178197E-001	1,000000000000000E+000
6,3912755E-001	5,660271698359796E-001	1,000000000000000E+000
6,3606739E-001	5,186030901503853E-001	1,000000000000000E+000
6,3315475E-001	4,741337668412555E-001	1,000000000000000E+000
6,3007337E-001	4,339382098079638E-001	1,000000000000000E+000
6,2699306E-001	3,964180630756334E-001	1,000000000000000E+000
6,2402958E-001	3,597030428696479E-001	1,000000000000000E+000
6,2105322E-001	3,266235939596638E-001	1,000000000000000E+000
6,1801964E-001	2,969115057161880E-001	1,000000000000000E+000
6,1504710E-001	2,685341846455096E-001	1,000000000000000E+000
6,1209255E-001	2,416495157008702E-001	1,000000000000000E+000
6,0899097E-001	2,184853158688451E-001	1,000000000000000E+000
6,0604870E-001	1,954166341378700E-001	1,000000000000000E+000
6,0298640E-001	1,748286362023621E-001	1,000000000000000E+000
6,0003489E-001	1,561505762257827E-001	1,000000000000000E+000
5,9706563E-001	1,373817038800482E-001	1,000000000000000E+000
5,9405434E-001	1,220033080000306E-001	1,000000000000000E+000
5,9109402E-001	1,078767960282918E-001	1,000000000000000E+000
5,8804131E-001	9,481893044150924E-002	1,000000000000000E+000
5,8504367E-001	8,334783338162688E-002	1,000000000000000E+000
5,8209932E-001	7,254351049665875E-002	1,000000000000000E+000
5,7906145E-001	6,314331098552550E-002	1,000000000000000E+000
5,7598215E-001	5,486009711803036E-002	1,000000000000000E+000
5,7304621E-001	4,727397273297762E-002	1,000000000000000E+000
5,6989729E-001	4,033287941661307E-002	1,000000000000000E+000
5,6684089E-001	3,445447234610052E-002	1,000000000000000E+000
5,6384134E-001	2,944668967201849E-002	1,000000000000000E+000
5,6081730E-001	2,517082109807645E-002	1,000000000000000E+000
5,5780911E-001	2,135797190522692E-002	1,000000000000000E+000
5,5483645E-001	1,810626699187888E-002	1,000000000000000E+000
5,5190325E-001	1,532123682998297E-002	1,000000000000000E+000
5,4879218E-001	1,292894538473488E-002	1,000000000000000E+000
5,4587322E-001	1,091019172914899E-002	1,000000000000000E+000
5,4286301E-001	9,209999623969817E-003	1,000000000000000E+000
5,3989530E-001	7,787371427141650E-003	1,000000000000000E+000
5,3689235E-001	6,605938533658924E-003	1,000000000000000E+000
5,3385866E-001	5,614484853594004E-003	1,000000000000000E+000
5,3080028E-001	4,847989021117417E-003	1,000000000000000E+000
5,2770334E-001	4,006787229749348E-003	1,000000000000000E+000
5,2474099E-001	3,434890352158479E-003	1,000000000000000E+000
5,2171993E-001	2,979961162739367E-003	1,000000000000000E+000
5,1872247E-001	2,577669712368507E-003	1,000000000000000E+000
5,1577485E-001	2,257834441978744E-003	1,000000000000000E+000
5,1276040E-001	1,980121216535180E-003	1,000000000000000E+000
5,0969833E-001	1,741938259717621E-003	1,000000000000000E+000
5,0675684E-001	1,532902194620898E-003	1,000000000000000E+000
5,0377738E-001	1,353074175591353E-003	1,000000000000000E+000
5,0074059E-001	1,184118821573670E-003	1,000000000000000E+000
4,9772927E-001	1,029388848481331E-003	1,000000000000000E+000
4,9470872E-001	8,756535786939206E-004	1,000000000000000E+000
4,9169809E-001	7,359506028493247E-004	1,000000000000000E+000
4,8876539E-001	5,857608059918214E-004	1,000000000000000E+000
4,8573706E-001	4,267879206192385E-004	1,000000000000000E+000
4,8276708E-001	2,439080772696513E-004	1,000000000000000E+000
4,7968522E-001	6,092178765265449E-005	1,000000000000000E+000
4,7670737E-001	-1,620534195185986E-004	1,000000000000000E+000
4,7369599E-001	-4,168541256030379E-004	1,000000000000000E+000
4,7071764E-001	-7,331649205933356E-004	1,000000000000000E+000
4,6772221E-001	-1,126934282003934E-003	1,000000000000000E+000
4,6475700E-001	-1,619088316840916E-003	1,000000000000000E+000
4,6172929E-001	-2,243298304012754E-003	1,000000000000000E+000
4,5874557E-001	-3,009656067624003E-003	1,000000000000000E+000
4,5567375E-001	-3,924193750270238E-003	1,000000000000000E+000
4,5270059E-001	-4,933562261858107E-003	1,000000000000000E+000
4,4965017E-001	-6,082869895693024E-003	1,000000000000000E+000
4,4676402E-001	-7,306920903612894E-003	1,000000000000000E+000
4,4372082E-001	-8,525932867390423E-003	1,000000000000000E+000
4,4070739E-001	-9,623220205188736E-003	1,000000000000000E+000
4,3767169E-001	-1,034460408152969E-002	1,000000000000000E+000
4,3469238E-001	-1,076967982022650E-002	1,000000000000000E+000
4,3160230E-001	-1,078981788367797E-002	1,000000000000000E+000
4,2861643E-001	-1,044400389633052E-002	1,000000000000000E+000
4,2565081E-001	-9,794084616905646E-003	1,000000000000000E+000
4,2263946E-001	-8,956258076777870E-003	1,000000000000000E+000
4,1961569E-001	-7,996067580353997E-003	1,000000000000000E+000
4,1667417E-001	-7,026831870024799E-003	1,000000000000000E+000
4,1362673E-001	-6,087860270806419E-003	1,000000000000000E+000
4,1069716E-001	-5,296610689268212E-003	1,000000000000000E+000
4,0761155E-001	-4,625515994657298E-003	1,000000000000000E+000
4,0466428E-001	-4,077669623161334E-003	1,000000000000000E+000
4,0145406E-001	-3,456792628157367E-003	1,000000000000000E+000
3,9849579E-001	-3,090922167295562E-003	1,000000000000000E+000
3,9546326E-001	-2,797655751326147E-003	1,000000000000000E+000
3,9250606E-001	-2,546929325002320E-003	1,000000000000000E+000
3,8945898E-001	-2,331972348434787E-003	1,000000000000000E+000
3,8649407E-001	-2,151462938314487E-003	1,000000000000000E+000
3,8347211E-001	-2,002353046700257E-003	1,000000000000000E+000
3,8043955E-001	-1,885504193026938E-003	1,000000000000000E+000
3,7747496E-001	-1,779515954571199E-003	1,000000000000000E+000
3,7449142E-001	-1,687180902108544E-003	1,000000000000000E+000
3,7149268E-001	-1,611172302081996E-003	1,000000000000000E+000
3,6851212E-001	-1,544032689212854E-003	1,000000000000000E+000
3,6546686E-001	-1,491040129852957E-003	1,000000000000000E+000
3,6245444E-001	-1,440607828807521E-003	1,000000000000000E+000
3,5948712E-001	-1,390632409020195E-003	1,000000000000000E+000
3,5646579E-001	-1,354549676085513E-003	1,000000000000000E+000
3,5346404E-001	-1,314372200527230E-003	1,000000000000000E+000
3,5046864E-001	-1,277047204087808E-003	1,000000000000000E+000
3,4744987E-001	-1,242443997946950E-003	1,000000000000000E+000
3,4447807E-001	-1,207225102796000E-003	1,000000000000000E+000
3,4140602E-001	-1,169759090998409E-003	1,000000000000000E+000
3,3844566E-001	-1,137185850831854E-003	1,000000000000000E+000
3,3550015E-001	-1,110444975400287E-003	1,000000000000000E+000
3,3239010E-001	-1,084645506698859E-003	1,000000000000000E+000
3,2948938E-001	-1,042596670086510E-003	1,000000000000000E+000
3,2646835E-001	-1,019834213795237E-003	1,000000000000000E+000
3,2348460E-001	-9,921286381914252E-004	1,000000000000000E+000
3,2046583E-001	-9,757503554085195E-004	1,000000000000000E+000
3,1747049E-001	-9,497325855898301E-004	1,000000000000000E+000
3,1443506E-001	-9,262670532500491E-004	1,000000000000000E+000
3,1149775E-001	-9,033629267377256E-004	1,000000000000000E+000
3,0851936E-001	-8,809542433604114E-004	1,000000000000000E+000
3,0546767E-001	-8,654153174896917E-004	1,000000000000000E+000
3,0250624E-001	-8,400176526500696E-004	1,000000000000000E+000
2,9948661E-001	-8,222071640119274E-004	1,000000000000000E+000
2,9650483E-001	-8,049181976322976E-004	1,000000000000000E+000
2,9348078E-001	-7,804623706356827E-004	1,000000000000000E+000
2,9046839E-001	-7,683292451660284E-004	1,000000000000000E+000
2,8748891E-001	-7,560095674552791E-004	1,000000000000000E+000
2,8445563E-001	-7,305409962998933E-004	1,000000000000000E+000
2,8146097E-001	-7,175550857887736E-004	1,000000000000000E+000
2,7848154E-001	-6,980493620582541E-004	1,000000000000000E+000
2,7552754E-001	-6,939934155154172E-004	1,000000000000000E+000
2,7249601E-001	-6,768747552212788E-004	1,000000000000000E+000
2,6950505E-001	-6,587858470151389E-004	1,000000000000000E+000
2,6649782E-001	-6,448760477126073E-004	1,000000000000000E+000
2,6346523E-001	-6,336271616916283E-004	1,000000000000000E+000
2,6051021E-001	-6,135650346509149E-004	1,000000000000000E+000
2,5748083E-001	-6,118202777759593E-004	1,000000000000000E+000
2,5447187E-001	-6,039962072535970E-004	1,000000000000000E+000
2,5148156E-001	-5,895886640706225E-004	1,000000000000000E+000
2,4851269E-001	-5,742561183659312E-004	1,000000000000000E+000
2,4549714E-001	-5,576101824908309E-004	1,000000000000000E+000
2,4251236E-001	-5,504183529385781E-004	1,000000000000000E+000
2,3949488E-001	-5,426113347545680E-004	1,000000000000000E+000
2,3648335E-001	-5,338758526667511E-004	1,000000000000000E+000
2,3351024E-001	-5,300773663501797E-004	1,000000000000000E+000
2,3045327E-001	-5,103303053338891E-004	1,000000000000000E+000
2,2745998E-001	-5,010525312374955E-004	1,000000000000000E+000
2,2459641E-001	-4,847294864239312E-004	1,000000000000000E+000
2,2146814E-001	-4,791027357547873E-004	1,000000000000000E+000
2,1848445E-001	-4,702635630983707E-004	1,000000000000000E+000
2,1547844E-001	-4,557107951063261E-004	1,000000000000000E+000
2,1243633E-001	-4,512829276411834E-004	1,000000000000000E+000
2,0948255E-001	-4,357287977685195E-004	1,000000000000000E+000
2,0646250E-001	-4,202078730022362E-004	1,000000000000000E+000
2,0352446E-001	-4,199553174478498E-004	1,000000000000000E+000
2,0048341E-001	-4,072309047285436E-004	1,000000000000000E+000
1,9746464E-001	-3,965491836334192E-004	1,000000000000000E+000
1,9453540E-001	-4,018128657029097E-004	1,000000000000000E+000
1,9149406E-001	-3,892227793137791E-004	1,000000000000000E+000
1,8850502E-001	-3,866185895715713E-004	1,000000000000000E+000
1,8554042E-001	-3,790729287981437E-004	1,000000000000000E+000
1,8251422E-001	-3,747679391838937E-004	1,000000000000000E+000
1,7953087E-001	-3,619027162566502E-004	1,000000000000000E+000
1,7653619E-001	-3,629188670871246E-004	1,000000000000000E+000
1,7346436E-001	-3,640041188187277E-004	1,000000000000000E+000
1,7050293E-001	-3,665109612925573E-004	1,000000000000000E+000
1,6750647E-001	-3,609966185676491E-004	1,000000000000000E+000
1,6447629E-001	-3,613365946121909E-004	1,000000000000000E+000
1,6144878E-001	-3,659985851401067E-004	1,000000000000000E+000
1,5847464E-001	-3,734332471111200E-004	1,000000000000000E+000
1,5554190E-001	-3,836092845550948E-004	1,000000000000000E+000
1,5249340E-001	-3,823017677302915E-004	1,000000000000000E+000
1,4948049E-001	-3,888783441714262E-004	1,000000000000000E+000
1,4649199E-001	-3,966232005024597E-004	1,000000000000000E+000
1,4349769E-001	-4,029095739260099E-004	1,000000000000000E+000
1,4047360E-001	-4,245239713188270E-004	1,000000000000000E+000
1,3751325E-001	-4,223418952841734E-004	1,000000000000000E+000
1,3445988E-001	-4,317596088445237E-004	1,000000000000000E+000
1,3150547E-001	-4,526361075572194E-004	1,000000000000000E+000
1,2850690E-001	-4,582227106343598E-004	1,000000000000000E+000
1,2548707E-001	-4,763602157250224E-004	1,000000000000000E+000
1,2243648E-001	-4,896674115637970E-004	1,000000000000000E+000
1,1952107E-001	-4,812590581142525E-004	1,000000000000000E+000
1,1652213E-001	-5,029457459514181E-004	1,000000000000000E+000
1,1350656E-001	-5,084617941706919E-004	1,000000000000000E+000
1,1048570E-001	-5,299488427335892E-004	1,000000000000000E+000
1,0743508E-001	-5,300007099831496E-004	1,000000000000000E+000
1,0444217E-001	-5,368747561994226E-004	1,000000000000000E+000
1,0151649E-001	-5,512606683442250E-004	1,000000000000000E+000
9,8446779E-002	-5,450570464572120E-004	1,000000000000000E+000
9,5447145E-002	-5,647203682587190E-004	1,000000000000000E+000
9,2428386E-002	-5,614662814236709E-004	1,000000000000000E+000
8,9521483E-002	-5,658739732289520E-004	1,000000000000000E+000
8,6484320E-002	-5,829082877543672E-004	1,000000000000000E+000
8,3499543E-002	-5,784666724580568E-004	1,000000000000000E+000
8,0499902E-002	-6,050987847881174E-004	1,000000000000000E+000
7,7499196E-002	-6,026634338609561E-004	1,000000000000000E+000
7,4467018E-002	-6,158014676305879E-004	1,000000000000000E+000
7,1460627E-002	-6,299001341716643E-004	1,000000000000000E+000
6,8458863E-002	-6,334228660379565E-004	1,000000000000000E+000
6,5434799E-002	-6,669640485748021E-004	1,000000000000000E+000
6,2440466E-002	-6,783005719832344E-004	1,000000000000000E+000
5,9470907E-002	-6,814558628603501E-004	1,000000000000000E+000
5,6493212E-002	-7,216904407306140E-004	1,000000000000000E+000
5,3487208E-002	-7,296785819409894E-004	1,000000000000000E+000
5,0480131E-002	-7,517861026465817E-004	1,000000000000000E+000
4,7453947E-002	-7,590479175521572E-004	1,000000000000000E+000
4,4470727E-002	-7,745763378865190E-004	1,000000000000000E+000
4,1472714E-002	-8,004155170880985E-004	1,000000000000000E+000
3,8465641E-002	-8,016058381311898E-004	1,000000000000000E+000
3,5426714E-002	-8,279353454381713E-004	1,000000000000000E+000
3,2447245E-002	-8,460100202548875E-004	1,000000000000000E+000
2,9458627E-002	-8,528006969486766E-004	1,000000000000000E+000
2,6477693E-002	-8,706652053223733E-004	1,000000000000000E+000
2,3399482E-002	-8,821449973559770E-004	1,000000000000000E+000
2,0438062E-002	-9,041876349941465E-004	1,000000000000000E+000
1,7441608E-002	-9,010128538037689E-004	1,000000000000000E+000
1,4443493E-002	-9,132130541854543E-004	1,000000000000000E+000
1,1494357E-002	-9,284739696470649E-004	1,000000000000000E+000
8,4299454E-003	-9,349686403937250E-004	1,000000000000000E+000
5,4196855E-003	-9,474904015040588E-004	1,000000000000000E+000
2,4699504E-003	-9,392754767916208E-004	1,000000000000000E+000
-9,8591932E-005	-9,551986414055406E-004	1,000000000000000E+000
-4,2350887E-004	-9,496281831981796E-004	1,000000000000000E+000