File: fig_4_nife_ceo2/Activity_2_CV/Ni75Fe25_Activity_2_CV_2_02_CV_C01.txt
Ewe/V	<I>/mA	cycle number
9,8556193E-005	-4,921836853027344E-001	1,000000000000000E+000
2,5959564E-003	-1,078658292889421E-001	1,000000000000000E+000
5,5616186E-003	-6,925458532004125E-002	1,000000000000000E+000
8,4805610E-003	-5,256588659787764E-002	1,000000000000000E+000
1,1673454E-002	-4,247723160108879E-002	1,000000000000000E+000
1,4665662E-002	-3,579475278485689E-002	1,000000000000000E+000
1,7636634E-002	-3,091836643490797E-002	1,000000000000000E+000
2,0622471E-002	-2,718085665815423E-002	1,000000000000000E+000
2,3650192E-002	-2,418385941274159E-002	1,000000000000000E+000
2,6705636E-002	-2,180352691659193E-002	1,000000000000000E+000
2,9646877E-002	-1,973495097691508E-002	1,000000000000000E+000
3,2621033E-002	-1,795483594182179E-002	1,000000000000000E+000
3,5687566E-002	-1,639918013924069E-002	1,000000000000000E+000
3,8665976E-002	-1,510778008279118E-002	1,000000000000000E+000
4,1641198E-002	-1,398926712437948E-002	1,000000000000000E+000
4,4604734E-002	-1,295525581476140E-002	1,000000000000000E+000
4,7550153E-002	-1,205299152055977E-002	1,000000000000000E+000
5,0618883E-002	-1,124335647368740E-002	1,000000000000000E+000
5,3659931E-002	-1,050528046542245E-002	1,000000000000000E+000
5,6642585E-002	-9,848111041699054E-003	1,000000000000000E+000
5,9647538E-002	-9,225420636925295E-003	1,000000000000000E+000
6,2572844E-002	-8,669332591032723E-003	1,000000000000000E+000
6,5607525E-002	-8,158499158851806E-003	1,000000000000000E+000
6,8659201E-002	-7,661633099383891E-003	1,000000000000000E+000
7,1636140E-002	-7,242009722689569E-003	1,000000000000000E+000
7,4631929E-002	-6,838726672653311E-003	1,000000000000000E+000
7,7652812E-002	-6,504375478062697E-003	1,000000000000000E+000
8,0726780E-002	-6,133192078336597E-003	1,000000000000000E+000
8,3632991E-002	-5,803670881666084E-003	1,000000000000000E+000
8,6695269E-002	-5,507578358880189E-003	1,000000000000000E+000
8,9655623E-002	-5,192191687064376E-003	1,000000000000000E+000
9,2649959E-002	-4,949091032735824E-003	1,000000000000000E+000
9,5672958E-002	-4,708087118830875E-003	1,000000000000000E+000
9,8835044E-002	-4,515895242793555E-003	1,000000000000000E+000
1,0186231E-001	-4,302165491343846E-003	1,000000000000000E+000
1,0484004E-001	-4,100513172605931E-003	1,000000000000000E+000
1,0784460E-001	-3,909184143683447E-003	1,000000000000000E+000
1,1090051E-001	-3,726815219759760E-003	1,000000000000000E+000
1,1382264E-001	-3,575357982755233E-003	1,000000000000000E+000
1,1685944E-001	-3,413620834626083E-003	1,000000000000000E+000
1,1982191E-001	-3,262301321038996E-003	1,000000000000000E+000
1,2286510E-001	-3,147300949310705E-003	1,000000000000000E+000
1,2583077E-001	-3,004089049614019E-003	1,000000000000000E+000
1,2891535E-001	-2,890022987361331E-003	1,000000000000000E+000
1,3186827E-001	-2,780457929392743E-003	1,000000000000000E+000
1,3484880E-001	-2,668557930630814E-003	1,000000000000000E+000
1,3780597E-001	-2,565726801310078E-003	1,000000000000000E+000
1,4081196E-001	-2,450968167812420E-003	1,000000000000000E+000
1,4386682E-001	-2,340865984262475E-003	1,000000000000000E+000
1,4684948E-001	-2,243362361873561E-003	1,000000000000000E+000
1,4980559E-001	-2,140080246327565E-003	1,000000000000000E+000
1,5282819E-001	-2,055360287252263E-003	1,000000000000000E+000
1,5584098E-001	-1,985776984861284E-003	1,000000000000000E+000
1,5880983E-001	-1,882435208904659E-003	1,000000000000000E+000
1,6185619E-001	-1,824300413753427E-003	1,000000000000000E+000
1,6481760E-001	-1,729821016072358E-003	1,000000000000000E+000
1,6785017E-001	-1,641720198462439E-003	1,000000000000000E+000
1,7082538E-001	-1,578684149364379E-003	1,000000000000000E+000
1,7385899E-001	-1,501331131640611E-003	1,000000000000000E+000
1,7681085E-001	-1,422320908169652E-003	1,000000000000000E+000
1,7984024E-001	-1,364496710697431E-003	1,000000000000000E+000
1,8282926E-001	-1,275397831098724E-003	1,000000000000000E+000
1,8582387E-001	-1,222119801655387E-003	1,000000000000000E+000
1,8879668E-001	-1,153086109873271E-003	1,000000000000000E+000
1,9184303E-001	-1,073138635431872E-003	1,000000000000000E+000
1,9481932E-001	-1,029636484411819E-003	1,000000000000000E+000
1,9783488E-001	-9,626476647495456E-004	1,000000000000000E+000
2,0085149E-001	-8,960148758832241E-004	1,000000000000000E+000
2,0380124E-001	-8,516203272511472E-004	1,000000000000000E+000
2,0690176E-001	-7,843607098517256E-004	1,000000000000000E+000
2,0980893E-001	-7,314752795506037E-004	1,000000000000000E+000
2,1281187E-001	-7,016264878215439E-004	1,000000000000000E+000
2,1585715E-001	-6,465418082656875E-004	1,000000000000000E+000
2,1883556E-001	-6,024458733892152E-004	1,000000000000000E+000
2,2181183E-001	-5,661244983805203E-004	1,000000000000000E+000
2,2485712E-001	-5,135249930295063E-004	1,000000000000000E+000
2,2784512E-001	-4,875748468133262E-004	1,000000000000000E+000
2,3078950E-001	-4,538361000633335E-004	1,000000000000000E+000
2,3385818E-001	-3,942822824112111E-004	1,000000000000000E+000
2,3681110E-001	-3,710889309613769E-004	1,000000000000000E+000
2,3986807E-001	-3,388766209712361E-004	1,000000000000000E+000
2,4291061E-001	-2,995707525866656E-004	1,000000000000000E+000
2,4581428E-001	-2,696595068168162E-004	1,000000000000000E+000
2,4889569E-001	-2,286063582494511E-004	1,000000000000000E+000
2,5179231E-001	-2,002723019633402E-004	1,000000000000000E+000
2,5481850E-001	-1,687214529364094E-004	1,000000000000000E+000
2,5782663E-001	-1,341265443977408E-004	1,000000000000000E+000
2,6079232E-001	-1,145317813135430E-004	1,000000000000000E+000
2,6381955E-001	-8,325349161897072E-005	1,000000000000000E+000
2,6691559E-001	-5,593137975625233E-005	1,000000000000000E+000
2,6981670E-001	-3,469830291873464E-005	1,000000000000000E+000
2,7284181E-001	-4,143323266892520E-006	1,000000000000000E+000
2,7581176E-001	4,406774127330264E-006	1,000000000000000E+000
2,7880821E-001	3,593268477242401E-005	1,000000000000000E+000
2,8187683E-001	5,974473749017963E-005	1,000000000000000E+000
2,8481919E-001	6,531067065459833E-005	1,000000000000000E+000
2,8778693E-001	9,015384118362660E-005	1,000000000000000E+000
2,9077384E-001	1,086396573601652E-004	1,000000000000000E+000
2,9388392E-001	1,135129975921119E-004	1,000000000000000E+000
2,9677844E-001	1,281034645623287E-004	1,000000000000000E+000
2,9982904E-001	1,290245834571074E-004	1,000000000000000E+000
3,0286586E-001	1,428481016799126E-004	1,000000000000000E+000
3,0582300E-001	1,625496090513003E-004	1,000000000000000E+000
3,0883753E-001	1,544126243181979E-004	1,000000000000000E+000
3,1180319E-001	1,664799744571454E-004	1,000000000000000E+000
3,1480390E-001	1,760343741507380E-004	1,000000000000000E+000
3,1780991E-001	1,635888655729062E-004	1,000000000000000E+000
3,2080421E-001	1,764549875511445E-004	1,000000000000000E+000
3,2374999E-001	1,578947143470876E-004	1,000000000000000E+000
3,2678548E-001	1,679156967579075E-004	1,000000000000000E+000
3,2979679E-001	1,664339317446785E-004	1,000000000000000E+000
3,3279958E-001	1,519376524574722E-004	1,000000000000000E+000
3,3582580E-001	1,559671814952185E-004	1,000000000000000E+000
3,3875221E-001	1,586828017732127E-004	1,000000000000000E+000
3,4178689E-001	1,403191408774830E-004	1,000000000000000E+000
3,4481090E-001	1,459068559727579E-004	1,000000000000000E+000
3,4778574E-001	1,397173174401326E-004	1,000000000000000E+000
3,5081232E-001	1,298784314217232E-004	1,000000000000000E+000
3,5373548E-001	1,307984165034269E-004	1,000000000000000E+000
3,5671604E-001	1,250266973018782E-004	1,000000000000000E+000
3,5979846E-001	1,317973767810858E-004	1,000000000000000E+000
3,6275992E-001	1,295409157810684E-004	1,000000000000000E+000
3,6573303E-001	1,280512105413833E-004	1,000000000000000E+000
3,6870503E-001	1,275086679051752E-004	1,000000000000000E+000
3,7176096E-001	1,352784576118238E-004	1,000000000000000E+000
3,7477866E-001	1,393770982860299E-004	1,000000000000000E+000
3,7775707E-001	1,407655510090233E-004	1,000000000000000E+000
3,8074127E-001	1,417646255984687E-004	1,000000000000000E+000
3,8379142E-001	1,629524041587615E-004	1,000000000000000E+000
3,8676557E-001	1,699454880148830E-004	1,000000000000000E+000
3,8975668E-001	1,869958698134037E-004	1,000000000000000E+000
3,9274251E-001	2,004582324222506E-004	1,000000000000000E+000
3,9575279E-001	2,204500345235788E-004	1,000000000000000E+000
3,9874071E-001	2,364616030579320E-004	1,000000000000000E+000
4,0171272E-001	2,545634320972627E-004	1,000000000000000E+000
4,0475368E-001	2,781229871719167E-004	1,000000000000000E+000
4,0775451E-001	3,197304334834432E-004	1,000000000000000E+000
4,1077435E-001	3,426568823948505E-004	1,000000000000000E+000
4,1379523E-001	3,887546041418700E-004	1,000000000000000E+000
4,1673118E-001	4,230158307303245E-004	1,000000000000000E+000
4,1982955E-001	4,675398692748373E-004	1,000000000000000E+000
4,2271453E-001	5,238440748610122E-004	1,000000000000000E+000
4,2573753E-001	5,697671867665628E-004	1,000000000000000E+000
4,2878917E-001	6,147602859926053E-004	1,000000000000000E+000
4,3174741E-001	6,895512500593726E-004	1,000000000000000E+000
4,3476933E-001	7,511882826594062E-004	1,000000000000000E+000
4,3779266E-001	8,356285996992456E-004	1,000000000000000E+000
4,4077390E-001	9,044438758251915E-004	1,000000000000000E+000
4,4374382E-001	9,855605864341932E-004	1,000000000000000E+000
4,4682527E-001	1,088216938937663E-003	1,000000000000000E+000
4,4980577E-001	1,162269372712000E-003	1,000000000000000E+000
4,5278305E-001	1,259993675885286E-003	1,000000000000000E+000
4,5576683E-001	1,363806425601188E-003	1,000000000000000E+000
4,5882699E-001	1,478100379381120E-003	1,000000000000000E+000
4,6181190E-001	1,597999412174964E-003	1,000000000000000E+000
4,6483052E-001	1,761327643526746E-003	1,000000000000000E+000
4,6777391E-001	1,947752656884991E-003	1,000000000000000E+000
4,7076821E-001	2,196995947125108E-003	1,000000000000000E+000
4,7379443E-001	2,507232416322447E-003	1,000000000000000E+000
4,7688428E-001	2,901799949190266E-003	1,000000000000000E+000
4,7982767E-001	3,381952338200218E-003	1,000000000000000E+000
4,8279971E-001	3,971008564929754E-003	1,000000000000000E+000
4,8581740E-001	4,643164020378301E-003	1,000000000000000E+000
4,8882660E-001	5,435739006887291E-003	1,000000000000000E+000
4,9182624E-001	6,275648905055109E-003	1,000000000000000E+000
4,9484181E-001	7,167305952085964E-003	1,000000000000000E+000
4,9783510E-001	8,110994183447268E-003	1,000000000000000E+000
5,0085491E-001	9,105529483498020E-003	1,000000000000000E+000
5,0385559E-001	1,014555793225475E-002	1,000000000000000E+000
5,0691152E-001	1,142665801289733E-002	1,000000000000000E+000
5,0988567E-001	1,271641690810912E-002	1,000000000000000E+000
5,1293308E-001	1,419539054654551E-002	1,000000000000000E+000
5,1593590E-001	1,590344892398193E-002	1,000000000000000E+000
5,1891673E-001	1,793030819005816E-002	1,000000000000000E+000
5,2192456E-001	2,024115418580774E-002	1,000000000000000E+000
5,2492416E-001	2,283280648136937E-002	1,000000000000000E+000
5,2788669E-001	2,557104895928308E-002	1,000000000000000E+000
5,3092343E-001	2,840424194148494E-002	1,000000000000000E+000
5,3391147E-001	3,118062396127255E-002	1,000000000000000E+000
5,3689092E-001	3,377697520700340E-002	1,000000000000000E+000
5,3987569E-001	3,611003194382315E-002	1,000000000000000E+000
5,4290062E-001	3,808654550645113E-002	1,000000000000000E+000
5,4592276E-001	3,992643875076257E-002	1,000000000000000E+000
5,4891282E-001	4,157029493561942E-002	1,000000000000000E+000
5,5188489E-001	4,322114501916458E-002	1,000000000000000E+000
5,5492061E-001	4,508654044464853E-002	1,000000000000000E+000
5,5792767E-001	4,735680686071311E-002	1,000000000000000E+000
5,6090611E-001	5,021656184117207E-002	1,000000000000000E+000
5,6395566E-001	5,372917207323291E-002	1,000000000000000E+000
5,6687033E-001	5,786661146622557E-002	1,000000000000000E+000
5,6985825E-001	6,276434708530282E-002	1,000000000000000E+000
5,7285053E-001	6,859285180254204E-002	1,000000000000000E+000
5,7586867E-001	7,539169661501133E-002	1,000000000000000E+000
5,7891458E-001	8,317456359799771E-002	1,000000000000000E+000
5,8188874E-001	9,177861268824272E-002	1,000000000000000E+000
5,8485442E-001	1,014324686713857E-001	1,000000000000000E+000
5,8797830E-001	1,126678419497937E-001	1,000000000000000E+000
5,9103948E-001	1,247342699503027E-001	1,000000000000000E+000
5,9396696E-001	1,384376705584032E-001	1,000000000000000E+000
5,9701115E-001	1,526833631947233E-001	1,000000000000000E+000
6,0001099E-001	1,685104686661297E-001	1,000000000000000E+000
6,0299343E-001	1,853073840779237E-001	1,000000000000000E+000
6,0600269E-001	2,039688306875402E-001	1,000000000000000E+000
6,0902035E-001	2,226445761165006E-001	1,000000000000000E+000
6,1199349E-001	2,432039766012775E-001	1,000000000000000E+000
6,1501324E-001	2,654669844860089E-001	1,000000000000000E+000
6,1798632E-001	2,886868331543333E-001	1,000000000000000E+000
6,2094986E-001	3,123355211179005E-001	1,000000000000000E+000
6,2398112E-001	3,401665119729962E-001	1,000000000000000E+000
6,2691307E-001	3,668920050170299E-001	1,000000000000000E+000
6,2995631E-001	3,956467958078527E-001	1,000000000000000E+000
6,3293147E-001	4,254252520598936E-001	1,000000000000000E+000
6,3598210E-001	4,581038196805611E-001	1,000000000000000E+000
6,3898283E-001	4,926458501136644E-001	1,000000000000000E+000
6,4201218E-001	5,269915983165339E-001	1,000000000000000E+000
6,4498097E-001	5,616555737960831E-001	1,000000000000000E+000
6,4794874E-001	6,007268228895466E-001	1,000000000000000E+000
6,5098345E-001	6,392620409841001E-001	1,000000000000000E+000
6,5398204E-001	6,821521077381103E-001	1,000000000000000E+000
6,5701020E-001	7,236344593433461E-001	1,000000000000000E+000
6,5998667E-001	7,682142244554800E-001	1,000000000000000E+000
6,6303086E-001	8,127161102821336E-001	1,000000000000000E+000
6,6601884E-001	8,601086850778605E-001	1,000000000000000E+000
6,6893250E-001	9,102318110345706E-001	1,000000000000000E+000
6,7197782E-001	9,607897599622675E-001	1,000000000000000E+000
6,7498696E-001	1,015879190985174E+000	1,000000000000000E+000
6,7799830E-001	1,067264568660399E+000	1,000000000000000E+000
6,8112224E-001	1,128777719729507E+000	1,000000000000000E+000
6,8412930E-001	1,181141762269876E+000	1,000000000000000E+000
6,8710876E-001	1,240696586617808E+000	1,000000000000000E+000
6,9010305E-001	1,303621648120234E+000	1,000000000000000E+000
6,9312078E-001	1,364329326103806E+000	1,000000000000000E+000
6,9610131E-001	1,427138037489655E+000	1,000000000000000E+000
6,9908601E-001	1,489196898985876E+000	1,000000000000000E+000
7,0212179E-001	1,559229318483339E+000	1,000000000000000E+000
7,0509821E-001	1,630284378074062E+000	1,000000000000000E+000
7,0809352E-001	1,696541382544709E+000	1,000000000000000E+000
7,1112597E-001	1,769617849686377E+000	1,000000000000000E+000
7,1413732E-001	1,844839886864275E+000	1,000000000000000E+000
7,1710831E-001	1,911387313250236E+000	1,000000000000000E+000
7,2007394E-001	1,996078078540002E+000	1,000000000000000E+000
7,2311497E-001	2,067410951180391E+000	1,000000000000000E+000
7,2606373E-001	2,150353254019684E+000	1,000000000000000E+000
7,2909629E-001	2,224072295859827E+000	1,000000000000000E+000
7,3209274E-001	2,313219080858625E+000	1,000000000000000E+000
7,3510510E-001	2,387427592882355E+000	1,000000000000000E+000
7,3805833E-001	2,473329005110749E+000	1,000000000000000E+000
7,4107248E-001	2,557263864326787E+000	1,000000000000000E+000
7,4407429E-001	2,648995365499761E+000	1,000000000000000E+000
7,4710691E-001	2,732667485484328E+000	1,000000000000000E+000
7,5005549E-001	2,818177196714617E+000	1,000000000000000E+000
7,5311667E-001	2,907938644661648E+000	1,000000000000000E+000
7,5609303E-001	3,000147190713690E+000	1,000000000000000E+000
7,5904596E-001	3,089332251287914E+000	1,000000000000000E+000
7,6210707E-001	3,183290485888119E+000	1,000000000000000E+000
7,6508665E-001	3,271470142093392E+000	1,000000000000000E+000
7,6802152E-001	3,371671061768566E+000	1,000000000000000E+000
7,7106571E-001	3,457633778351518E+000	1,000000000000000E+000
7,7406216E-001	3,551132367784462E+000	1,000000000000000E+000
7,7705759E-001	3,650983410154623E+000	1,000000000000000E+000
7,8005195E-001	3,746728142068765E+000	1,000000000000000E+000
7,8307277E-001	3,838025655504524E+000	1,000000000000000E+000
7,8602368E-001	3,941608483356141E+000	1,000000000000000E+000
7,8909653E-001	4,039274268207116E+000	1,000000000000000E+000
7,9210883E-001	4,143518762388467E+000	1,000000000000000E+000
7,9509467E-001	4,243528238195665E+000	1,000000000000000E+000
7,9807955E-001	4,341364879456776E+000	1,000000000000000E+000
8,0107170E-001	4,432011291114392E+000	1,000000000000000E+000
8,0413938E-001	4,536601960726621E+000	1,000000000000000E+000
8,0699879E-001	4,645842656594560E+000	1,000000000000000E+000
8,1010461E-001	4,752755259001084E+000	1,000000000000000E+000
8,1309783E-001	4,849590434880753E+000	1,000000000000000E+000
8,1612086E-001	4,955046080610380E+000	1,000000000000000E+000
8,1908303E-001	5,057435153816506E+000	1,000000000000000E+000
8,2208407E-001	5,165988450215261E+000	1,000000000000000E+000
8,2508045E-001	5,272330689051799E+000	1,000000000000000E+000
8,2804191E-001	5,371341603953802E+000	1,000000000000000E+000
8,3106279E-001	5,483174638244023E+000	1,000000000000000E+000
8,3409101E-001	5,586109825644357E+000	1,000000000000000E+000
8,3707905E-001	5,702003165403710E+000	1,000000000000000E+000
8,4003419E-001	5,801337976101564E+000	1,000000000000000E+000
8,4301674E-001	5,922305086572687E+000	1,000000000000000E+000
8,4604084E-001	6,036099473669147E+000	1,000000000000000E+000
8,4908193E-001	6,138184819159306E+000	1,000000000000000E+000
8,5202879E-001	6,248201051024154E+000	1,000000000000000E+000
8,5507160E-001	6,353339048132071E+000	1,000000000000000E+000
8,5812116E-001	6,477186706331036E+000	1,000000000000000E+000
8,6103696E-001	6,586489689323092E+000	1,000000000000000E+000
8,6406630E-001	6,698722544981479E+000	1,000000000000000E+000
8,6702555E-001	6,816099204173703E+000	1,000000000000000E+000
8,7008691E-001	6,916850740677091E+000	1,000000000000000E+000
8,7309283E-001	7,044169790282524E+000	1,000000000000000E+000
8,7611794E-001	7,157561259119841E+000	1,000000000000000E+000
8,7916642E-001	7,282152807631462E+000	1,000000000000000E+000
8,8200992E-001	7,392642867673288E+000	1,000000000000000E+000
8,8506699E-001	7,496865711514932E+000	1,000000000000000E+000
8,8815790E-001	7,636083409088855E+000	1,000000000000000E+000
8,9113629E-001	7,741413014748716E+000	1,000000000000000E+000
8,9407754E-001	7,869799821149741E+000	1,000000000000000E+000
8,9714199E-001	7,981517489737627E+000	1,000000000000000E+000
9,0012205E-001	8,097365333256967E+000	1,000000000000000E+000
9,0306902E-001	8,221110507947259E+000	1,000000000000000E+000
9,0606016E-001	8,350889292433699E+000	1,000000000000000E+000
9,0906602E-001	8,466653746815709E+000	1,000000000000000E+000
9,1206580E-001	8,597812849648193E+000	1,000000000000000E+000
9,1501987E-001	8,700870278538474E+000	1,000000000000000E+000
9,1809386E-001	8,822708392900154E+000	1,000000000000000E+000
9,2107004E-001	8,944164224222405E+000	1,000000000000000E+000
9,2407078E-001	9,080073112127764E+000	1,000000000000000E+000
9,2707467E-001	9,206904577357435E+000	1,000000000000000E+000
9,3005949E-001	9,337901388504037E+000	1,000000000000000E+000
9,3308365E-001	9,455190620707388E+000	1,000000000000000E+000
9,3606508E-001	9,588572264123130E+000	1,000000000000000E+000
9,3909556E-001	9,700877215586534E+000	1,000000000000000E+000
9,4204628E-001	9,824461247848006E+000	1,000000000000000E+000
9,4508630E-001	9,947712858112517E+000	1,000000000000000E+000
9,4806266E-001	1,006876182711587E+001	1,000000000000000E+000
9,5108247E-001	1,019735639983294E+001	1,000000000000000E+000
9,5407045E-001	1,032765408133977E+001	1,000000000000000E+000
9,5707726E-001	1,045204137936119E+001	1,000000000000000E+000
9,6010262E-001	1,056931099849761E+001	1,000000000000000E+000
9,6305120E-001	1,070245251904272E+001	1,000000000000000E+000
9,6602696E-001	1,083218504839749E+001	1,000000000000000E+000
9,6916419E-001	1,095797935918890E+001	1,000000000000000E+000
9,7218615E-001	1,107254030928863E+001	1,000000000000000E+000
9,7512728E-001	1,120460844344029E+001	1,000000000000000E+000
9,7820973E-001	1,131368690911603E+001	1,000000000000000E+000
9,8112243E-001	1,143586401632820E+001	1,000000000000000E+000
9,8412842E-001	1,158234690092589E+001	1,000000000000000E+000
9,8714823E-001	1,170443476577731E+001	1,000000000000000E+000
9,9011409E-001	1,181584233280137E+001	1,000000000000000E+000
9,9316764E-001	1,194738263074231E+001	1,000000000000000E+000
9,9620128E-001	1,205625054456477E+001	1,000000000000000E+000
9,9913621E-001	1,217656455619800E+001	1,000000000000000E+000
9,9928689E-001	1,216918021163428E+001	1,000000000000000E+000
9,9620873E-001	1,194012879764418E+001	1,000000000000000E+000
9,9325258E-001	1,176940380094265E+001	1,000000000000000E+000
9,9026692E-001	1,157195026157109E+001	1,000000000000000E+000
9,8721826E-001	1,138872563920052E+001	1,000000000000000E+000
9,8424095E-001	1,124055400308298E+001	1,000000000000000E+000
9,8125094E-001	1,105689171076000E+001	1,000000000000000E+000
9,7823966E-001	1,088233394005131E+001	1,000000000000000E+000
9,7528559E-001	1,071435925364495E+001	1,000000000000000E+000
9,7224343E-001	1,056555547519606E+001	1,000000000000000E+000
9,6920663E-001	1,041311579564263E+001	1,000000000000000E+000
9,6623659E-001	1,027458984346629E+001	1,000000000000000E+000
9,6327209E-001	1,011925229970830E+001	1,000000000000000E+000
9,6028632E-001	9,969832485968283E+000	1,000000000000000E+000
9,5724988E-001	9,811113326822905E+000	1,000000000000000E+000
9,5422322E-001	9,699679332390360E+000	1,000000000000000E+000
9,5127130E-001	9,530147343063035E+000	1,000000000000000E+000
9,4824636E-001	9,403298342309018E+000	1,000000000000000E+000
9,4520515E-001	9,258958047885201E+000	1,000000000000000E+000
9,4222468E-001	9,121322632309001E+000	1,000000000000000E+000
9,3920594E-001	8,989896713133007E+000	1,000000000000000E+000
9,3624032E-001	8,859508661118269E+000	1,000000000000000E+000
9,3325961E-001	8,715883952808753E+000	1,000000000000000E+000
9,3029517E-001	8,598653567215734E+000	1,000000000000000E+000
9,2721486E-001	8,472636390570358E+000	1,000000000000000E+000
9,2425328E-001	8,344152141185077E+000	1,000000000000000E+000
9,2125595E-001	8,210405597475955E+000	1,000000000000000E+000
9,1824991E-001	8,095440195058245E+000	1,000000000000000E+000
9,1516632E-001	7,972248281007978E+000	1,000000000000000E+000
9,1224313E-001	7,833202661502924E+000	1,000000000000000E+000
9,0920460E-001	7,722484380650087E+000	1,000000000000000E+000
9,0615046E-001	7,607584596626367E+000	1,000000000000000E+000
9,0324849E-001	7,488270671391952E+000	1,000000000000000E+000
9,0022022E-001	7,357542379451644E+000	1,000000000000000E+000
8,9725238E-001	7,249776107316123E+000	1,000000000000000E+000
8,9427722E-001	7,112722433613538E+000	1,000000000000000E+000
8,9120954E-001	7,015729213990880E+000	1,000000000000000E+000
8,8817799E-001	6,911911669366745E+000	1,000000000000000E+000
8,8519853E-001	6,791509362507853E+000	1,000000000000000E+000
8,8221806E-001	6,675481743282759E+000	1,000000000000000E+000
8,7922806E-001	6,557217671554930E+000	1,000000000000000E+000
8,7618989E-001	6,458328474279483E+000	1,000000000000000E+000
8,7324572E-001	6,345656203372116E+000	1,000000000000000E+000
8,7025458E-001	6,242401836410437E+000	1,000000000000000E+000
8,6721987E-001	6,136144229952180E+000	1,000000000000000E+000
8,6422020E-001	6,016090616448651E+000	1,000000000000000E+000
8,6125880E-001	5,921751583041512E+000	1,000000000000000E+000
8,5820717E-001	5,816750687975727E+000	1,000000000000000E+000
8,5523194E-001	5,701338083160152E+000	1,000000000000000E+000
8,5227907E-001	5,612267717040936E+000	1,000000000000000E+000
8,4927613E-001	5,505484573897866E+000	1,000000000000000E+000
8,4624571E-001	5,399853649289437E+000	1,000000000000000E+000
8,4320045E-001	5,305396927660020E+000	1,000000000000000E+000
8,4023792E-001	5,198251828720267E+000	1,000000000000000E+000
8,3724678E-001	5,103266803889881E+000	1,000000000000000E+000
8,3425361E-001	5,002057950479113E+000	1,000000000000000E+000
8,3125502E-001	4,916328053118946E+000	1,000000000000000E+000
8,2823765E-001	4,807440696419498E+000	1,000000000000000E+000
8,2523656E-001	4,716962233625033E+000	1,000000000000000E+000
8,2226026E-001	4,620460549855196E+000	1,000000000000000E+000
8,1926626E-001	4,540486449412988E+000	1,000000000000000E+000
8,1614530E-001	4,440282427298236E+000	1,000000000000000E+000
8,1317014E-001	4,349106423844027E+000	1,000000000000000E+000
8,1017357E-001	4,253818598463972E+000	1,000000000000000E+000
8,0716437E-001	4,160620328925923E+000	1,000000000000000E+000
8,0416161E-001	4,068789544356925E+000	1,000000000000000E+000
8,0118626E-001	3,983662297666207E+000	1,000000000000000E+000
7,9826641E-001	3,893789433432829E+000	1,000000000000000E+000
7,9515767E-001	3,798916204108409E+000	1,000000000000000E+000
7,9219592E-001	3,708862526312716E+000	1,000000000000000E+000
7,8918678E-001	3,625842523615379E+000	1,000000000000000E+000
7,8616482E-001	3,536402515577080E+000	1,000000000000000E+000
7,8317887E-001	3,455182947201521E+000	1,000000000000000E+000
7,8016555E-001	3,363041217939390E+000	1,000000000000000E+000
7,7711707E-001	3,273118816400597E+000	1,000000000000000E+000
7,7412271E-001	3,195288766437372E+000	1,000000000000000E+000
7,7120638E-001	3,107337388342408E+000	1,000000000000000E+000
7,6813400E-001	3,021170192598756E+000	1,000000000000000E+000
7,6519072E-001	2,942968365286490E+000	1,000000000000000E+000
7,6218951E-001	2,865328617076628E+000	1,000000000000000E+000
7,5918078E-001	2,781367634074634E+000	1,000000000000000E+000
7,5618857E-001	2,707769472650398E+000	1,000000000000000E+000
7,5315285E-001	2,625314685847618E+000	1,000000000000000E+000
7,5017762E-001	2,547484828737858E+000	1,000000000000000E+000
7,4720663E-001	2,480048605610449E+000	1,000000000000000E+000
7,4417520E-001	2,402457418169426E+000	1,000000000000000E+000
7,4118823E-001	2,322458958375755E+000	1,000000000000000E+000
7,3820370E-001	2,250781299662092E+000	1,000000000000000E+000
7,3519206E-001	2,176217387238189E+000	1,000000000000000E+000
7,3216492E-001	2,106364412457083E+000	1,000000000000000E+000
7,2915679E-001	2,033587630187704E+000	1,000000000000000E+000
7,2619855E-001	1,967124681353843E+000	1,000000000000000E+000
7,2322756E-001	1,892176581533995E+000	1,000000000000000E+000
7,2016418E-001	1,823753450429088E+000	1,000000000000000E+000
7,1721029E-001	1,756117045423203E+000	1,000000000000000E+000
7,1421152E-001	1,692686338750040E+000	1,000000000000000E+000
7,1114939E-001	1,625703611915892E+000	1,000000000000000E+000
7,0824742E-001	1,566030380077445E+000	1,000000000000000E+000
7,0518827E-001	1,507455067029078E+000	1,000000000000000E+000
7,0215362E-001	1,439164001063826E+000	1,000000000000000E+000
6,9916570E-001	1,380928770518631E+000	1,000000000000000E+000
6,9620204E-001	1,325857995783321E+000	1,000000000000000E+000
6,9330972E-001	1,265818333738991E+000	1,000000000000000E+000
6,9015610E-001	1,205866249485148E+000	1,000000000000000E+000
6,8710768E-001	1,154889337642462E+000	1,000000000000000E+000
6,8418872E-001	1,100166448330733E+000	1,000000000000000E+000
6,8116009E-001	1,048842280652554E+000	1,000000000000000E+000
6,7814058E-001	9,945126777417698E-001	1,000000000000000E+000
6,7522591E-001	9,466030262072795E-001	1,000000000000000E+000
6,7215937E-001	8,969717637346430E-001	1,000000000000000E+000
6,6916186E-001	8,496077152015546E-001	1,000000000000000E+000
6,6613674E-001	8,028172182844187E-001	1,000000000000000E+000
6,6322416E-001	7,589739395343500E-001	1,000000000000000E+000
6,6019475E-001	7,164756303648865E-001	1,000000000000000E+000
6,5721864E-001	6,759370623046181E-001	1,000000000000000E+000
6,5415835E-001	6,370147977176392E-001	1,000000000000000E+000
6,5117568E-001	5,990670172290660E-001	1,000000000000000E+000
6,4815158E-001	5,622819733432149E-001	1,000000000000000E+000
6,4514875E-001	5,222370474432463E-001	1,000000000000000E+000
6,4222455E-001	4,920703751793204E-001	1,000000000000000E+000
6,3923335E-001	4,555275486887798E-001	1,000000000000000E+000
6,3589287E-001	4,236467613283175E-001	1,000000000000000E+000
6,3298166E-001	3,922203941406792E-001	1,000000000000000E+000
6,2995100E-001	3,657911217152687E-001	1,000000000000000E+000
6,2703943E-001	3,377468195805102E-001	1,000000000000000E+000
6,2394953E-001	3,090989916097533E-001	1,000000000000000E+000
6,2099552E-001	2,858086315822073E-001	1,000000000000000E+000
6,1801392E-001	2,619316183165763E-001	1,000000000000000E+000
6,1503768E-001	2,399875452285825E-001	1,000000000000000E+000
6,1196905E-001	2,196884019629793E-001	1,000000000000000E+000
6,0897154E-001	1,999483464767220E-001	1,000000000000000E+000
6,0601753E-001	1,815720574883843E-001	1,000000000000000E+000
6,0297012E-001	1,643058039203642E-001	1,000000000000000E+000
6,0001063E-001	1,486499329655842E-001	1,000000000000000E+000
5,9699845E-001	1,335760201084639E-001	1,000000000000000E+000
5,9399140E-001	1,192449528402957E-001	1,000000000000000E+000
5,9106499E-001	1,072572795737554E-001	1,000000000000000E+000
5,8799946E-001	9,556405381151734E-002	1,000000000000000E+000
5,8497965E-001	8,520131712502743E-002	1,000000000000000E+000
5,8199281E-001	7,519182409930669E-002	1,000000000000000E+000
5,7902080E-001	6,648817811902530E-002	1,000000000000000E+000
5,7598293E-001	5,865637910708266E-002	1,000000000000000E+000
5,7299918E-001	5,160247714336874E-002	1,000000000000000E+000
5,6992710E-001	4,505623561656247E-002	1,000000000000000E+000
5,6686080E-001	3,940579374141290E-002	1,000000000000000E+000
5,6386852E-001	3,438654091856447E-002	1,000000000000000E+000
5,6080735E-001	2,995372853213352E-002	1,000000000000000E+000
5,5782366E-001	2,605731437899281E-002	1,000000000000000E+000
5,5480593E-001	2,274361915335743E-002	1,000000000000000E+000
5,5180657E-001	1,974250127087507E-002	1,000000000000000E+000
5,4880238E-001	1,711709174243603E-002	1,000000000000000E+000
5,4575288E-001	1,491210342645165E-002	1,000000000000000E+000
5,4281640E-001	1,296186354995582E-002	1,000000000000000E+000
5,3978014E-001	1,127755103067628E-002	1,000000000000000E+000
5,3674543E-001	9,829232634650784E-003	1,000000000000000E+000
5,3379679E-001	8,575852209258161E-003	1,000000000000000E+000
5,3078228E-001	7,474478594275039E-003	1,000000000000000E+000
5,2778625E-001	6,535354457411165E-003	1,000000000000000E+000
5,2479672E-001	5,719170617119129E-003	1,000000000000000E+000
5,2178651E-001	5,005156641399448E-003	1,000000000000000E+000
5,1865715E-001	4,064301491150622E-003	1,000000000000000E+000
5,1565135E-001	3,525824203879757E-003	1,000000000000000E+000
5,1265591E-001	3,026182063087180E-003	1,000000000000000E+000
5,0966269E-001	2,582190820479783E-003	1,000000000000000E+000
5,0672674E-001	2,185899595417991E-003	1,000000000000000E+000
5,0367612E-001	1,846225861559747E-003	1,000000000000000E+000
5,0067228E-001	1,472314068240579E-003	1,000000000000000E+000
4,9767792E-001	1,158714722708665E-003	1,000000000000000E+000
4,9463263E-001	8,479519005992094E-004	1,000000000000000E+000
4,9169880E-001	5,663648460503446E-004	1,000000000000000E+000
4,8865673E-001	2,733711813124231E-004	1,000000000000000E+000
4,8566771E-001	-2,807891312436606E-005	1,000000000000000E+000
4,8267013E-001	-3,280407400710863E-004	1,000000000000000E+000
4,7967476E-001	-6,444377908164396E-004	1,000000000000000E+000
4,7668359E-001	-9,766922741449961E-004	1,000000000000000E+000
4,7363406E-001	-1,343744445605758E-003	1,000000000000000E+000
4,7070494E-001	-1,751910571721173E-003	1,000000000000000E+000
4,6770382E-001	-2,239758359973663E-003	1,000000000000000E+000
4,6468186E-001	-2,797077729933220E-003	1,000000000000000E+000
4,6171573E-001	-3,491878391107012E-003	1,000000000000000E+000
4,5870274E-001	-4,342271945578669E-003	1,000000000000000E+000
4,5560223E-001	-5,366735763413844E-003	1,000000000000000E+000
4,5267478E-001	-6,568190028936882E-003	1,000000000000000E+000
4,4966879E-001	-8,040675713721315E-003	1,000000000000000E+000
4,4668508E-001	-9,727929083853809E-003	1,000000000000000E+000
4,4363451E-001	-1,149680893946087E-002	1,000000000000000E+000
4,4061360E-001	-1,337216084832518E-002	1,000000000000000E+000
4,3760100E-001	-1,492682864334920E-002	1,000000000000000E+000
4,3459415E-001	-1,598245996845635E-002	1,000000000000000E+000
4,3161148E-001	-1,622511131204279E-002	1,000000000000000E+000
4,2858529E-001	-1,586084082828779E-002	1,000000000000000E+000
4,2558458E-001	-1,503392248050167E-002	1,000000000000000E+000
4,2257965E-001	-1,410713665928615E-002	1,000000000000000E+000
4,1966817E-001	-1,313793878960623E-002	1,000000000000000E+000
4,1662496E-001	-1,213688741718177E-002	1,000000000000000E+000
4,1363293E-001	-1,115827905124455E-002	1,000000000000000E+000
4,1059276E-001	-1,027221882948389E-002	1,000000000000000E+000
4,0756124E-001	-9,518254843177282E-003	1,000000000000000E+000
4,0459564E-001	-8,867364446606192E-003	1,000000000000000E+000
4,0161398E-001	-8,389121203687566E-003	1,000000000000000E+000
3,9860800E-001	-7,989956230340128E-003	1,000000000000000E+000
3,9560941E-001	-7,727872182867475E-003	1,000000000000000E+000
3,9259171E-001	-7,548237656010304E-003	1,000000000000000E+000
3,8962716E-001	-7,410850081090659E-003	1,000000000000000E+000
3,8661474E-001	-7,333675433740087E-003	1,000000000000000E+000
3,8361406E-001	-7,304267170155324E-003	1,000000000000000E+000
3,8065901E-001	-7,281081602770911E-003	1,000000000000000E+000
3,7753829E-001	-7,322130492683016E-003	1,000000000000000E+000
3,7460986E-001	-7,346656541324194E-003	1,000000000000000E+000
3,7162825E-001	-7,385040320563724E-003	1,000000000000000E+000
3,6855108E-001	-7,484163757999152E-003	1,000000000000000E+000
3,6554611E-001	-7,568360615971520E-003	1,000000000000000E+000
3,6260173E-001	-7,632712653812768E-003	1,000000000000000E+000
3,5960844E-001	-7,754604316310214E-003	1,000000000000000E+000
3,5659400E-001	-7,828034228430203E-003	1,000000000000000E+000
3,5362083E-001	-7,929663235163802E-003	1,000000000000000E+000
3,5062227E-001	-8,075844424619900E-003	1,000000000000000E+000
3,4763536E-001	-8,150079545959366E-003	1,000000000000000E+000
3,4460279E-001	-8,282790914462445E-003	1,000000000000000E+000
3,4156919E-001	-8,409548701972955E-003	1,000000000000000E+000
3,3861947E-001	-8,498625691490194E-003	1,000000000000000E+000
3,3560812E-001	-8,602875989018099E-003	1,000000000000000E+000
3,3256215E-001	-8,708686320900716E-003	1,000000000000000E+000
3,2967785E-001	-8,844856940190840E-003	1,000000000000000E+000
3,2658583E-001	-8,944220180188200E-003	1,000000000000000E+000
3,2358640E-001	-8,986716165503818E-003	1,000000000000000E+000
3,2060251E-001	-9,051605813242714E-003	1,000000000000000E+000
3,1760603E-001	-9,174750020129338E-003	1,000000000000000E+000
3,1455755E-001	-9,267817295271014E-003	1,000000000000000E+000
3,1158975E-001	-9,353498855390344E-003	1,000000000000000E+000
3,0857205E-001	-9,445685599025117E-003	1,000000000000000E+000
3,0561388E-001	-9,512875926820236E-003	1,000000000000000E+000
3,0257705E-001	-9,592201851840038E-003	1,000000000000000E+000
2,9964644E-001	-9,622295610563922E-003	1,000000000000000E+000
2,9662234E-001	-9,702287851135943E-003	1,000000000000000E+000
2,9361847E-001	-9,724295584528739E-003	1,000000000000000E+000
2,9057741E-001	-9,785116659337480E-003	1,000000000000000E+000
2,8761280E-001	-9,820183584637626E-003	1,000000000000000E+000
2,8461531E-001	-9,850584948329851E-003	1,000000000000000E+000
2,8163368E-001	-9,874497756297035E-003	1,000000000000000E+000
2,7855763E-001	-9,897076693411513E-003	1,000000000000000E+000
2,7561575E-001	-9,885502330921780E-003	1,000000000000000E+000
2,7259442E-001	-9,873533389919614E-003	1,000000000000000E+000
2,6961920E-001	-9,892284664572981E-003	1,000000000000000E+000
2,6662803E-001	-9,843182783373743E-003	1,000000000000000E+000
2,6358274E-001	-9,773934047638544E-003	1,000000000000000E+000
2,6062772E-001	-9,737288851574516E-003	1,000000000000000E+000
2,5759196E-001	-9,693027356646899E-003	1,000000000000000E+000
2,5462314E-001	-9,616304358508077E-003	1,000000000000000E+000
2,5157782E-001	-9,541641307578702E-003	1,000000000000000E+000
2,4857077E-001	-9,462292488931531E-003	1,000000000000000E+000
2,4559450E-001	-9,364060975667707E-003	1,000000000000000E+000
2,4259774E-001	-9,277261493031735E-003	1,000000000000000E+000
2,3967272E-001	-9,197093225720432E-003	1,000000000000000E+000
2,3660509E-001	-9,094313571011509E-003	1,000000000000000E+000
2,3362884E-001	-8,990937706055080E-003	1,000000000000000E+000
2,3062281E-001	-8,875301152244948E-003	1,000000000000000E+000
2,2760831E-001	-8,776936717497710E-003	1,000000000000000E+000
2,2461185E-001	-8,629323811034824E-003	1,000000000000000E+000
2,2164300E-001	-8,492529304468970E-003	1,000000000000000E+000
2,1858189E-001	-8,365324975166483E-003	1,000000000000000E+000
2,1560442E-001	-8,228995100238182E-003	1,000000000000000E+000
2,1261328E-001	-8,090464136726372E-003	1,000000000000000E+000
2,0961791E-001	-7,928533386122309E-003	1,000000000000000E+000
2,0657896E-001	-7,784812703193823E-003	1,000000000000000E+000
2,0360586E-001	-7,664359351865602E-003	1,000000000000000E+000
2,0064446E-001	-7,501717380397455E-003	1,000000000000000E+000
1,9757049E-001	-7,370399611858508E-003	1,000000000000000E+000
1,9460590E-001	-7,201615316569467E-003	1,000000000000000E+000
1,9170712E-001	-7,059103799793768E-003	1,000000000000000E+000
1,8861724E-001	-6,909973176814993E-003	1,000000000000000E+000
1,8559808E-001	-6,754624842715343E-003	1,000000000000000E+000
1,8264024E-001	-6,600144493199261E-003	1,000000000000000E+000
1,7963104E-001	-6,479345085447813E-003	1,000000000000000E+000
1,7662928E-001	-6,328380493370062E-003	1,000000000000000E+000
1,7363706E-001	-6,183472691991293E-003	1,000000000000000E+000
1,7063318E-001	-6,032179706710675E-003	1,000000000000000E+000
1,6759320E-001	-5,905670290332413E-003	1,000000000000000E+000
1,6462754E-001	-5,782329925542371E-003	1,000000000000000E+000
1,6164088E-001	-5,660043477035012E-003	1,000000000000000E+000
1,5864632E-001	-5,532038119059807E-003	1,000000000000000E+000
1,5558293E-001	-5,410260201294301E-003	1,000000000000000E+000
1,5258119E-001	-5,269634577589818E-003	1,000000000000000E+000
1,4959854E-001	-5,149748148882333E-003	1,000000000000000E+000
1,4660421E-001	-5,040320589730080E-003	1,000000000000000E+000
1,4359498E-001	-4,915863746996807E-003	1,000000000000000E+000
1,4059748E-001	-4,821190165985145E-003	1,000000000000000E+000
1,3760136E-001	-4,700651434725922E-003	1,000000000000000E+000
1,3458122E-001	-4,580856697619873E-003	1,000000000000000E+000
1,3162830E-001	-4,488853371901178E-003	1,000000000000000E+000
1,2867962E-001	-4,384700254581958E-003	1,000000000000000E+000
1,2560566E-001	-4,290473722188069E-003	1,000000000000000E+000
1,2249231E-001	-4,071768339032611E-003	1,000000000000000E+000
1,1949488E-001	-3,564731381522579E-003	1,000000000000000E+000
1,1647188E-001	-3,457979657547336E-003	1,000000000000000E+000
1,1351153E-001	-3,377217928676492E-003	1,000000000000000E+000
1,1047154E-001	-3,290003411599340E-003	1,000000000000000E+000
1,0750269E-001	-3,207414251102277E-003	1,000000000000000E+000
1,0450375E-001	-3,120859082320099E-003	1,000000000000000E+000
1,0150658E-001	-3,044916696817043E-003	1,000000000000000E+000
9,8528184E-002	-2,955027232988655E-003	1,000000000000000E+000
9,5530674E-002	-2,901669309816772E-003	1,000000000000000E+000
9,2484303E-002	-2,824415176473430E-003	1,000000000000000E+000
8,9489982E-002	-2,723270855917136E-003	1,000000000000000E+000
8,6522199E-002	-2,673241743772252E-003	1,000000000000000E+000
8,3423808E-002	-2,627118663213482E-003	1,000000000000000E+000
8,0554858E-002	-2,574195088735583E-003	1,000000000000000E+000
7,7475488E-002	-2,498605037602361E-003	1,000000000000000E+000
7,4514076E-002	-2,446384326840072E-003	1,000000000000000E+000
7,1479388E-002	-2,407081664207657E-003	1,000000000000000E+000
6,8522215E-002	-2,353884745240726E-003	1,000000000000000E+000
6,5508775E-002	-2,304618327581838E-003	1,000000000000000E+000
6,2501706E-002	-2,274374223038762E-003	1,000000000000000E+000
5,9462775E-002	-2,237034270728232E-003	1,000000000000000E+000
5,6502808E-002	-2,195903054624315E-003	1,000000000000000E+000
5,3514458E-002	-2,156909491000045E-003	1,000000000000000E+000
5,0497830E-002	-2,102818086229518E-003	1,000000000000000E+000
4,7466341E-002	-2,078376555378701E-003	1,000000000000000E+000
4,4500671E-002	-2,048373920612024E-003	1,000000000000000E+000
4,1455377E-002	-2,012822263558135E-003	1,000000000000000E+000
3,8507763E-002	-1,987443589759819E-003	1,000000000000000E+000
3,5460338E-002	-1,976289736621624E-003	1,000000000000000E+000
3,2501046E-002	-1,931583834452372E-003	1,000000000000000E+000
2,9456809E-002	-1,927136729908005E-003	1,000000000000000E+000
2,6464602E-002	-1,901352928710888E-003	1,000000000000000E+000
2,3495676E-002	-1,895499627385520E-003	1,000000000000000E+000
2,0447271E-002	-1,892049151018434E-003	1,000000000000000E+000
1,7464619E-002	-1,888624513897303E-003	1,000000000000000E+000
1,4454358E-002	-1,900549797933734E-003	1,000000000000000E+000
1,1440916E-002	-1,890977200302443E-003	1,000000000000000E+000
8,4582632E-003	-1,885402635177551E-003	1,000000000000000E+000
5,4310155E-003	-1,902802105244121E-003	1,000000000000000E+000
2,4897743E-003	-1,906629862688669E-003	1,000000000000000E+000
-2,2636076E-004	-1,913567239950814E-003	1,000000000000000E+000
-2,8369905E-004	-1,892335925196461E-003	1,000000000000000E+000