File: fig_4_nife_ceo2/Activity_2_CV/Ni90Fe10_Activity_2_CV_2_02_CV_C01.txt
Ewe/V	<I>/mA	cycle number
-1,2680044E-005	-1,947818398475647E-001	1,000000000000000E+000
2,8093185E-003	-4,113478385044123E-002	1,000000000000000E+000
5,8018453E-003	-2,620447736815285E-002	1,000000000000000E+000
8,7876823E-003	-2,006230829877545E-002	1,000000000000000E+000
1,1779890E-002	-1,643250563882542E-002	1,000000000000000E+000
1,4793335E-002	-1,397985082870459E-002	1,000000000000000E+000
1,7783418E-002	-1,219120532502059E-002	1,000000000000000E+000
2,0716166E-002	-1,076182426753834E-002	1,000000000000000E+000
2,3762524E-002	-9,658383387283476E-003	1,000000000000000E+000
2,6732437E-002	-8,732418258053543E-003	1,000000000000000E+000
2,9768180E-002	-7,971520835859530E-003	1,000000000000000E+000
3,2758262E-002	-7,287170567780457E-003	1,000000000000000E+000
3,5798255E-002	-6,728336864146839E-003	1,000000000000000E+000
3,8749050E-002	-6,217686180856871E-003	1,000000000000000E+000
4,1820899E-002	-5,771193532376123E-003	1,000000000000000E+000
4,4753641E-002	-5,389183264165258E-003	1,000000000000000E+000
4,7796816E-002	-5,034623571376920E-003	1,000000000000000E+000
5,0832558E-002	-4,805172724107361E-003	1,000000000000000E+000
5,3912900E-002	-4,514017472198859E-003	1,000000000000000E+000
5,6802116E-002	-4,279480159897486E-003	1,000000000000000E+000
5,9861213E-002	-4,046078689188881E-003	1,000000000000000E+000
6,2866166E-002	-3,825159543067155E-003	1,000000000000000E+000
6,5861560E-002	-3,647155817936001E-003	1,000000000000000E+000
6,8855889E-002	-3,481289928648601E-003	1,000000000000000E+000
7,1808815E-002	-3,322571640008737E-003	1,000000000000000E+000
7,4830748E-002	-3,150299748572387E-003	1,000000000000000E+000
7,7828266E-002	-3,002047863090149E-003	1,000000000000000E+000
8,0854453E-002	-2,867044247763427E-003	1,000000000000000E+000
8,3842412E-002	-2,714622447617207E-003	1,000000000000000E+000
8,6876035E-002	-2,613677875393686E-003	1,000000000000000E+000
8,9814089E-002	-2,494461064070121E-003	1,000000000000000E+000
9,2814788E-002	-2,395299654715327E-003	1,000000000000000E+000
9,5785774E-002	-2,288195974356651E-003	1,000000000000000E+000
9,8835304E-002	-2,194125895289955E-003	1,000000000000000E+000
1,0187317E-001	-2,103923306748415E-003	1,000000000000000E+000
1,0481548E-001	-2,008533111985672E-003	1,000000000000000E+000
1,0781512E-001	-1,932807144901768E-003	1,000000000000000E+000
1,1084662E-001	-1,859076709242097E-003	1,000000000000000E+000
1,1381972E-001	-1,791815167475627E-003	1,000000000000000E+000
1,1681191E-001	-1,719332031642071E-003	1,000000000000000E+000
1,1978819E-001	-1,656351987619108E-003	1,000000000000000E+000
1,2281863E-001	-1,611479931335306E-003	1,000000000000000E+000
1,2581190E-001	-1,534365125617797E-003	1,000000000000000E+000
1,2880729E-001	-1,471319742678778E-003	1,000000000000000E+000
1,3180375E-001	-1,429029346064307E-003	1,000000000000000E+000
1,3480763E-001	-1,372795358451730E-003	1,000000000000000E+000
1,3782214E-001	-1,307057654013899E-003	1,000000000000000E+000
1,4082815E-001	-1,261555032085330E-003	1,000000000000000E+000
1,4382781E-001	-1,225299689502128E-003	1,000000000000000E+000
1,4682001E-001	-1,158293577280930E-003	1,000000000000000E+000
1,4985681E-001	-1,119554870138741E-003	1,000000000000000E+000
1,5280867E-001	-1,077838391037880E-003	1,000000000000000E+000
1,5581045E-001	-1,031853827223385E-003	1,000000000000000E+000
1,5880796E-001	-9,870698905737104E-004	1,000000000000000E+000
1,6182777E-001	-9,656326022313118E-004	1,000000000000000E+000
1,6478068E-001	-9,430949244408834E-004	1,000000000000000E+000
1,6779839E-001	-8,743899926015215E-004	1,000000000000000E+000
1,7082670E-001	-8,384612410159212E-004	1,000000000000000E+000
1,7380191E-001	-8,176269803861127E-004	1,000000000000000E+000
1,7679837E-001	-7,680314274920805E-004	1,000000000000000E+000
1,7983094E-001	-7,255344536090339E-004	1,000000000000000E+000
1,8283373E-001	-6,852736177673370E-004	1,000000000000000E+000
1,8579093E-001	-6,553822495623061E-004	1,000000000000000E+000
1,8889417E-001	-6,096438296641481E-004	1,000000000000000E+000
1,9184223E-001	-5,878033837373618E-004	1,000000000000000E+000
1,9483125E-001	-5,571044176760388E-004	1,000000000000000E+000
1,9772577E-001	-5,388430262822201E-004	1,000000000000000E+000
2,0076364E-001	-4,909561973065451E-004	1,000000000000000E+000
2,0380786E-001	-4,492247961570446E-004	1,000000000000000E+000
2,0684361E-001	-4,340044262576949E-004	1,000000000000000E+000
2,0977771E-001	-3,935015532008923E-004	1,000000000000000E+000
2,1282379E-001	-3,703614466394525E-004	1,000000000000000E+000
2,1578415E-001	-3,512785513804068E-004	1,000000000000000E+000
2,1878698E-001	-3,335828878721402E-004	1,000000000000000E+000
2,2181208E-001	-3,044526093324236E-004	1,000000000000000E+000
2,2480641E-001	-2,842142380390217E-004	1,000000000000000E+000
2,2779863E-001	-2,565467112014886E-004	1,000000000000000E+000
2,3077929E-001	-2,414699668942758E-004	1,000000000000000E+000
2,3383720E-001	-2,113006271298357E-004	1,000000000000000E+000
2,3681349E-001	-2,047886936533752E-004	1,000000000000000E+000
2,3975791E-001	-1,904022492835423E-004	1,000000000000000E+000
2,4279575E-001	-1,615423719905145E-004	1,000000000000000E+000
2,4576995E-001	-1,556279755438363E-004	1,000000000000000E+000
2,4880993E-001	-1,469115971091092E-004	1,000000000000000E+000
2,5179377E-001	-1,379013671929197E-004	1,000000000000000E+000
2,5477839E-001	-1,309082578630460E-004	1,000000000000000E+000
2,5781733E-001	-1,230746115693343E-004	1,000000000000000E+000
2,6082227E-001	-1,127275795676447E-004	1,000000000000000E+000
2,6379111E-001	-1,059638246168325E-004	1,000000000000000E+000
2,6685873E-001	-9,676249557811600E-005	1,000000000000000E+000
2,6981908E-001	-9,605087258609223E-005	1,000000000000000E+000
2,7283254E-001	-8,766007844297980E-005	1,000000000000000E+000
2,7581835E-001	-7,519774862240771E-005	1,000000000000000E+000
2,7879250E-001	-8,648328288436219E-005	1,000000000000000E+000
2,8177518E-001	-7,746444175980426E-005	1,000000000000000E+000
2,8486401E-001	-6,942828059908841E-005	1,000000000000000E+000
2,8778401E-001	-5,747507709138742E-005	1,000000000000000E+000
2,9079109E-001	-5,115815875372277E-005	1,000000000000000E+000
2,9378432E-001	-4,447026250916307E-005	1,000000000000000E+000
2,9680315E-001	-3,256495214118532E-005	1,000000000000000E+000
2,9973587E-001	-1,015200282592304E-005	1,000000000000000E+000
3,0278331E-001	-6,024591852086907E-006	1,000000000000000E+000
3,0577442E-001	8,235153531515739E-006	1,000000000000000E+000
3,0879849E-001	1,730105796861139E-005	1,000000000000000E+000
3,1180662E-001	3,876418167141828E-005	1,000000000000000E+000
3,1478816E-001	4,664019717727790E-005	1,000000000000000E+000
3,1775388E-001	6,530100163793569E-005	1,000000000000000E+000
3,2082361E-001	7,684556439390214E-005	1,000000000000000E+000
3,2380199E-001	9,521671176820055E-005	1,000000000000000E+000
3,2676873E-001	1,328427460334683E-004	1,000000000000000E+000
3,2982573E-001	1,455778439355521E-004	1,000000000000000E+000
3,3277756E-001	1,573625351033559E-004	1,000000000000000E+000
3,3576551E-001	1,703018169350611E-004	1,000000000000000E+000
3,3880341E-001	2,095187910773062E-004	1,000000000000000E+000
3,4181473E-001	2,294080378249606E-004	1,000000000000000E+000
3,4481224E-001	2,320183052421840E-004	1,000000000000000E+000
3,4777257E-001	2,703644667588169E-004	1,000000000000000E+000
3,5080090E-001	2,872814323788327E-004	1,000000000000000E+000
3,5377294E-001	3,058892922052446E-004	1,000000000000000E+000
3,5674894E-001	3,181421475945810E-004	1,000000000000000E+000
3,5976690E-001	3,523868599875132E-004	1,000000000000000E+000
3,6279204E-001	3,698382481239753E-004	1,000000000000000E+000
3,6572161E-001	3,858413131859056E-004	1,000000000000000E+000
3,6881253E-001	4,124326748427827E-004	1,000000000000000E+000
3,7187061E-001	4,121873534216275E-004	1,000000000000000E+000
3,7478742E-001	4,373322707808000E-004	1,000000000000000E+000
3,7774634E-001	4,461905814596139E-004	1,000000000000000E+000
3,8075587E-001	4,804569362764884E-004	1,000000000000000E+000
3,8387766E-001	4,919282482846088E-004	1,000000000000000E+000
3,8677645E-001	5,089764727801305E-004	1,000000000000000E+000
3,8983446E-001	5,349553445250935E-004	1,000000000000000E+000
3,9280757E-001	5,511644301149235E-004	1,000000000000000E+000
3,9573708E-001	5,650265953846593E-004	1,000000000000000E+000
3,9876974E-001	5,767147351506390E-004	1,000000000000000E+000
4,0181279E-001	6,163610845112983E-004	1,000000000000000E+000
4,0479654E-001	6,441957164687317E-004	1,000000000000000E+000
4,0776855E-001	6,644165783333141E-004	1,000000000000000E+000
4,1074273E-001	7,108217979333066E-004	1,000000000000000E+000
4,1376784E-001	7,437065580064937E-004	1,000000000000000E+000
4,1681102E-001	7,692709071115238E-004	1,000000000000000E+000
4,1982979E-001	8,057047678019791E-004	1,000000000000000E+000
4,2277423E-001	8,623624671434786E-004	1,000000000000000E+000
4,2582059E-001	9,207158246782553E-004	1,000000000000000E+000
4,2878732E-001	9,694714192304346E-004	1,000000000000000E+000
4,3179336E-001	1,072179630874309E-003	1,000000000000000E+000
4,3481106E-001	1,156070709410727E-003	1,000000000000000E+000
4,3775755E-001	1,245866609745065E-003	1,000000000000000E+000
4,4080392E-001	1,364599450394948E-003	1,000000000000000E+000
4,4381103E-001	1,515549623883972E-003	1,000000000000000E+000
4,4677448E-001	1,685673959501499E-003	1,000000000000000E+000
4,4979647E-001	1,881672003732255E-003	1,000000000000000E+000
4,5277485E-001	2,162388716991970E-003	1,000000000000000E+000
4,5573840E-001	2,463781198762796E-003	1,000000000000000E+000
4,5875502E-001	2,840753334775431E-003	1,000000000000000E+000
4,6173024E-001	3,244546605163198E-003	1,000000000000000E+000
4,6478510E-001	3,714810738657058E-003	1,000000000000000E+000
4,6773061E-001	4,232112376683014E-003	1,000000000000000E+000
4,7075254E-001	4,857068037777371E-003	1,000000000000000E+000
4,7380528E-001	5,642312806605959E-003	1,000000000000000E+000
4,7677413E-001	6,625340134591762E-003	1,000000000000000E+000
4,7974294E-001	7,873643464406166E-003	1,000000000000000E+000
4,8291567E-001	1,004996406825948E-002	1,000000000000000E+000
4,8591641E-001	1,218078173303665E-002	1,000000000000000E+000
4,8897338E-001	1,486898452513952E-002	1,000000000000000E+000
4,9196562E-001	1,817775272556765E-002	1,000000000000000E+000
4,9490577E-001	2,230973894836681E-002	1,000000000000000E+000
4,9792665E-001	2,723211817503556E-002	1,000000000000000E+000
5,0096345E-001	3,300891525894523E-002	1,000000000000000E+000
5,0393760E-001	3,963904730398038E-002	1,000000000000000E+000
5,0692880E-001	4,707438666204533E-002	1,000000000000000E+000
5,0989336E-001	5,526477235998684E-002	1,000000000000000E+000
5,1298219E-001	6,406912942049492E-002	1,000000000000000E+000
5,1593512E-001	7,343526889439114E-002	1,000000000000000E+000
5,1895285E-001	8,310119847053266E-002	1,000000000000000E+000
5,2194279E-001	9,295624572004441E-002	1,000000000000000E+000
5,2496696E-001	1,026490480214563E-001	1,000000000000000E+000
5,2802497E-001	1,120727408039559E-001	1,000000000000000E+000
5,3103095E-001	1,205916114979319E-001	1,000000000000000E+000
5,3400409E-001	1,281366045269992E-001	1,000000000000000E+000
5,3702706E-001	1,345372312003217E-001	1,000000000000000E+000
5,4007560E-001	1,395160295755566E-001	1,000000000000000E+000
5,4302746E-001	1,428826103153771E-001	1,000000000000000E+000
5,4603130E-001	1,450103088187022E-001	1,000000000000000E+000
5,4902142E-001	1,462701609888266E-001	1,000000000000000E+000
5,5205393E-001	1,474285015547041E-001	1,000000000000000E+000
5,5497617E-001	1,491014989401280E-001	1,000000000000000E+000
5,5801713E-001	1,520473921653207E-001	1,000000000000000E+000
5,6108582E-001	1,565211839834539E-001	1,000000000000000E+000
5,6403881E-001	1,630662846613400E-001	1,000000000000000E+000
5,6706065E-001	1,718828345695405E-001	1,000000000000000E+000
5,7002640E-001	1,830220125169992E-001	1,000000000000000E+000
5,7296860E-001	1,967679350415166E-001	1,000000000000000E+000
5,7603520E-001	2,132454679734044E-001	1,000000000000000E+000
5,7907408E-001	2,326376177592286E-001	1,000000000000000E+000
5,8208752E-001	2,542063038851095E-001	1,000000000000000E+000
5,8503944E-001	2,794923883463660E-001	1,000000000000000E+000
5,8802414E-001	3,078678203641076E-001	1,000000000000000E+000
5,9104395E-001	3,397051105993784E-001	1,000000000000000E+000
5,9400547E-001	3,757300396680050E-001	1,000000000000000E+000
5,9701997E-001	4,143200685901558E-001	1,000000000000000E+000
6,0005569E-001	4,573004474759235E-001	1,000000000000000E+000
6,0303730E-001	5,049019403155897E-001	1,000000000000000E+000
6,0600400E-001	5,549355302546655E-001	1,000000000000000E+000
6,0904926E-001	6,102023862150281E-001	1,000000000000000E+000
6,1213708E-001	6,704130323599529E-001	1,000000000000000E+000
6,1504322E-001	7,351669316853702E-001	1,000000000000000E+000
6,1803764E-001	7,869445320826998E-001	1,000000000000000E+000
6,2104028E-001	8,578550498782782E-001	1,000000000000000E+000
6,2400609E-001	9,327154983755790E-001	1,000000000000000E+000
6,2699622E-001	1,017623267729938E+000	1,000000000000000E+000
6,3012218E-001	1,112788590266796E+000	1,000000000000000E+000
6,3310695E-001	1,206321701306067E+000	1,000000000000000E+000
6,3611299E-001	1,345695749584104E+000	1,000000000000000E+000
6,3911366E-001	1,460683191892038E+000	1,000000000000000E+000
6,4216202E-001	1,578738785387239E+000	1,000000000000000E+000
6,4513624E-001	1,704006439028417E+000	1,000000000000000E+000
6,4816564E-001	1,836717975382899E+000	1,000000000000000E+000
6,5108246E-001	1,975933882367714E+000	1,000000000000000E+000
6,5414578E-001	2,121097575509901E+000	1,000000000000000E+000
6,5712112E-001	2,275427352814456E+000	1,000000000000000E+000
6,6009307E-001	2,431595591494562E+000	1,000000000000000E+000
6,6313291E-001	2,600395143708187E+000	1,000000000000000E+000
6,6609770E-001	2,770934276536210E+000	1,000000000000000E+000
6,6909838E-001	2,949210289857277E+000	1,000000000000000E+000
6,7212671E-001	3,131146639467239E+000	1,000000000000000E+000
6,7511994E-001	3,320949921701221E+000	1,000000000000000E+000
6,7812598E-001	3,515722038524231E+000	1,000000000000000E+000
6,8115222E-001	3,719155923714737E+000	1,000000000000000E+000
6,8410695E-001	3,921863877530846E+000	1,000000000000000E+000
6,8707818E-001	4,136099207631048E+000	1,000000000000000E+000
6,9019139E-001	4,355333850260767E+000	1,000000000000000E+000
6,9306678E-001	4,575337405107462E+000	1,000000000000000E+000
6,9613439E-001	4,795491224513841E+000	1,000000000000000E+000
6,9917655E-001	5,032848209649515E+000	1,000000000000000E+000
7,0214754E-001	5,263881573770291E+000	1,000000000000000E+000
7,0508307E-001	5,506203292860924E+000	1,000000000000000E+000
7,0813298E-001	5,748897229868263E+000	1,000000000000000E+000
7,1110815E-001	5,988370891060683E+000	1,000000000000000E+000
7,1413445E-001	6,238833298454750E+000	1,000000000000000E+000
7,1709901E-001	6,498542122154248E+000	1,000000000000000E+000
7,2005928E-001	6,751983814634158E+000	1,000000000000000E+000
7,2311950E-001	7,014548608572824E+000	1,000000000000000E+000
7,2609651E-001	7,272247519829961E+000	1,000000000000000E+000
7,2913891E-001	7,542308097929080E+000	1,000000000000000E+000
7,3216194E-001	7,812010145376590E+000	1,000000000000000E+000
7,3512346E-001	8,076703061998021E+000	1,000000000000000E+000
7,3810393E-001	8,353818626698484E+000	1,000000000000000E+000
7,4111629E-001	8,633597265700885E+000	1,000000000000000E+000
7,4414992E-001	8,907797838757666E+000	1,000000000000000E+000
7,4714118E-001	9,188881750770406E+000	1,000000000000000E+000
7,5009078E-001	9,467527559892929E+000	1,000000000000000E+000
7,5309682E-001	9,759132171028568E+000	1,000000000000000E+000
7,5614852E-001	1,004267775701557E+001	1,000000000000000E+000
7,5921607E-001	1,033774110789737E+001	1,000000000000000E+000
7,6218176E-001	1,062524306247022E+001	1,000000000000000E+000
7,6507950E-001	1,091910955390965E+001	1,000000000000000E+000
7,6824921E-001	1,122482749978829E+001	1,000000000000000E+000
7,7121252E-001	1,151185317915312E+001	1,000000000000000E+000
7,7425790E-001	1,180594038510537E+001	1,000000000000000E+000
7,7721608E-001	1,211507928053811E+001	1,000000000000000E+000
7,8023374E-001	1,240590905967485E+001	1,000000000000000E+000
7,8321743E-001	1,271083409932197E+001	1,000000000000000E+000
7,8622979E-001	1,301913801274867E+001	1,000000000000000E+000
7,8920180E-001	1,331029408396319E+001	1,000000000000000E+000
7,9222274E-001	1,363085585710951E+001	1,000000000000000E+000
7,9526055E-001	1,394071062973561E+001	1,000000000000000E+000
7,9825389E-001	1,426700382032629E+001	1,000000000000000E+000
8,0127692E-001	1,456240813788918E+001	1,000000000000000E+000
8,0419475E-001	1,487487209951527E+001	1,000000000000000E+000
8,0718058E-001	1,518806097688586E+001	1,000000000000000E+000
8,1025887E-001	1,550442271478755E+001	1,000000000000000E+000
8,1321812E-001	1,581270561602108E+001	1,000000000000000E+000
8,1624001E-001	1,613750855141490E+001	1,000000000000000E+000
8,1923968E-001	1,646494691117826E+001	1,000000000000000E+000
8,2229453E-001	1,675303038501954E+001	1,000000000000000E+000
8,2519966E-001	1,705087856803078E+001	1,000000000000000E+000
8,2823437E-001	1,687241611715893E+001	1,000000000000000E+000
8,3122081E-001	1,721092196654863E+001	1,000000000000000E+000
8,3419758E-001	1,759176071755194E+001	1,000000000000000E+000
8,3723444E-001	1,775634357312910E+001	1,000000000000000E+000
8,4018832E-001	1,830909868432821E+001	1,000000000000000E+000
8,4322941E-001	1,844853168347518E+001	1,000000000000000E+000
8,4622264E-001	1,892352332887737E+001	1,000000000000000E+000
8,4919780E-001	1,907350664884859E+001	1,000000000000000E+000
8,5219282E-001	1,934621008120070E+001	1,000000000000000E+000
8,5520035E-001	1,983196279305179E+001	1,000000000000000E+000
8,5819256E-001	2,002693001780651E+001	1,000000000000000E+000
8,6120170E-001	2,091177239142314E+001	1,000000000000000E+000
8,6425775E-001	2,125911136549356E+001	1,000000000000000E+000
8,6723608E-001	2,160549495955439E+001	1,000000000000000E+000
8,7019432E-001	2,193947624457391E+001	1,000000000000000E+000
8,7320137E-001	2,227596460718688E+001	1,000000000000000E+000
8,7617552E-001	2,260652182296838E+001	1,000000000000000E+000
8,7918365E-001	2,294558797726006E+001	1,000000000000000E+000
8,8218760E-001	2,325984128600072E+001	1,000000000000000E+000
8,8521159E-001	2,360052179492777E+001	1,000000000000000E+000
8,8822609E-001	2,394217004594884E+001	1,000000000000000E+000
8,9116096E-001	2,427757951596971E+001	1,000000000000000E+000
8,9420944E-001	2,459487642939121E+001	1,000000000000000E+000
8,9726973E-001	2,493944567414907E+001	1,000000000000000E+000
9,0017259E-001	2,527480790350171E+001	1,000000000000000E+000
9,0316594E-001	2,558416607725917E+001	1,000000000000000E+000
9,0618360E-001	2,595205034947446E+001	1,000000000000000E+000
9,0925968E-001	2,628089862805103E+001	1,000000000000000E+000
9,1224229E-001	2,659986005402470E+001	1,000000000000000E+000
9,1522503E-001	2,691277665048497E+001	1,000000000000000E+000
9,1823840E-001	2,729095829857722E+001	1,000000000000000E+000
9,2124444E-001	2,763355260533267E+001	1,000000000000000E+000
9,2421442E-001	2,795568065254059E+001	1,000000000000000E+000
9,2717260E-001	2,828150483896047E+001	1,000000000000000E+000
9,3017232E-001	2,862641817561070E+001	1,000000000000000E+000
9,3325782E-001	2,895278091684770E+001	1,000000000000000E+000
9,3618113E-001	2,928062144726067E+001	1,000000000000000E+000
9,3916678E-001	2,962158709696894E+001	1,000000000000000E+000
9,4215804E-001	2,994805520894583E+001	1,000000000000000E+000
9,4522572E-001	3,031354048327808E+001	1,000000000000000E+000
9,4818813E-001	3,064498267336876E+001	1,000000000000000E+000
9,5124406E-001	3,098912245562286E+001	1,000000000000000E+000
9,5420861E-001	3,133320496222888E+001	1,000000000000000E+000
9,5717967E-001	3,165124323362680E+001	1,000000000000000E+000
9,6019095E-001	3,197828689724417E+001	1,000000000000000E+000
9,6323621E-001	3,236946033674570E+001	1,000000000000000E+000
9,6620721E-001	3,269352778691029E+001	1,000000000000000E+000
9,6920562E-001	3,303321471774129E+001	1,000000000000000E+000
9,7222453E-001	3,340170701804340E+001	1,000000000000000E+000
9,7518915E-001	3,370975954002807E+001	1,000000000000000E+000
9,7818673E-001	3,405810282668301E+001	1,000000000000000E+000
9,8121393E-001	3,441695779034882E+001	1,000000000000000E+000
9,8417526E-001	3,476011151142939E+001	1,000000000000000E+000
9,8721421E-001	3,509295689816386E+001	1,000000000000000E+000
9,9014366E-001	3,542618168067858E+001	1,000000000000000E+000
9,9326348E-001	3,573639991413177E+001	1,000000000000000E+000
9,9622172E-001	3,609982389144079E+001	1,000000000000000E+000
9,9923903E-001	3,646063652606270E+001	1,000000000000000E+000
9,9944323E-001	3,644821427738839E+001	1,000000000000000E+000
9,9638951E-001	3,607362628577778E+001	1,000000000000000E+000
9,9338877E-001	3,574791081232809E+001	1,000000000000000E+000
9,9043185E-001	3,533179816823611E+001	1,000000000000000E+000
9,8740429E-001	3,497762310504910E+001	1,000000000000000E+000
9,8441219E-001	3,462710591914180E+001	1,000000000000000E+000
9,8143911E-001	3,422244568179252E+001	1,000000000000000E+000
9,7842342E-001	3,386728329182745E+001	1,000000000000000E+000
9,7537702E-001	3,352073554900755E+001	1,000000000000000E+000
9,7239232E-001	3,313827879682962E+001	1,000000000000000E+000
9,6939075E-001	3,274012288161015E+001	1,000000000000000E+000
9,6633244E-001	3,238487587548181E+001	1,000000000000000E+000
9,6341789E-001	3,204969766404905E+001	1,000000000000000E+000
9,6036720E-001	3,168042508085284E+001	1,000000000000000E+000
9,5740473E-001	3,132258717192008E+001	1,000000000000000E+000
9,5437640E-001	3,096302959302662E+001	1,000000000000000E+000
9,5138210E-001	3,058449268638412E+001	1,000000000000000E+000
9,4834566E-001	3,024547468736637E+001	1,000000000000000E+000
9,4538176E-001	2,988872991586766E+001	1,000000000000000E+000
9,4242883E-001	2,952785255092607E+001	1,000000000000000E+000
9,3941540E-001	2,918459323528418E+001	1,000000000000000E+000
9,3639338E-001	2,884561392320262E+001	1,000000000000000E+000
9,3340439E-001	2,848174933403260E+001	1,000000000000000E+000
9,3038034E-001	2,817328757709913E+001	1,000000000000000E+000
9,2738962E-001	2,777924616583721E+001	1,000000000000000E+000
9,2438006E-001	2,743650126186878E+001	1,000000000000000E+000
9,2134959E-001	2,708138205621265E+001	1,000000000000000E+000
9,1840309E-001	2,675227855906201E+001	1,000000000000000E+000
9,1536510E-001	2,637412376036184E+001	1,000000000000000E+000
9,1240376E-001	2,582866175131448E+001	1,000000000000000E+000
9,0937120E-001	2,567943307520852E+001	1,000000000000000E+000
9,0640509E-001	2,535767385213184E+001	1,000000000000000E+000
9,0341222E-001	2,499753225998543E+001	1,000000000000000E+000
9,0033937E-001	2,468796504125029E+001	1,000000000000000E+000
8,9744800E-001	2,431926475184832E+001	1,000000000000000E+000
8,9435917E-001	2,399474555821649E+001	1,000000000000000E+000
8,9143282E-001	2,367080607638599E+001	1,000000000000000E+000
8,8843215E-001	2,328657407541664E+001	1,000000000000000E+000
8,8540971E-001	2,299194369218594E+001	1,000000000000000E+000
8,8232344E-001	2,264299396808995E+001	1,000000000000000E+000
8,7941623E-001	2,230260359970612E+001	1,000000000000000E+000
8,7641978E-001	2,196050510884953E+001	1,000000000000000E+000
8,7340307E-001	2,163017284005149E+001	1,000000000000000E+000
8,7046295E-001	2,130330595502505E+001	1,000000000000000E+000
8,6740702E-001	2,096963290346453E+001	1,000000000000000E+000
8,6434370E-001	2,063993038531063E+001	1,000000000000000E+000
8,6138439E-001	2,030325293567989E+001	1,000000000000000E+000
8,5841656E-001	1,998399738173367E+001	1,000000000000000E+000
8,5539043E-001	1,964997437508475E+001	1,000000000000000E+000
8,5239285E-001	1,933078211951418E+001	1,000000000000000E+000
8,4936035E-001	1,899969326841588E+001	1,000000000000000E+000
8,4637976E-001	1,868852665459480E+001	1,000000000000000E+000
8,4338546E-001	1,834643757005397E+001	1,000000000000000E+000
8,4037417E-001	1,803670059539832E+001	1,000000000000000E+000
8,3736598E-001	1,771860076253913E+001	1,000000000000000E+000
8,3440030E-001	1,737984261977699E+001	1,000000000000000E+000
8,3140498E-001	1,706422790188913E+001	1,000000000000000E+000
8,2840002E-001	1,676252750934125E+001	1,000000000000000E+000
8,2536536E-001	1,644338369666852E+001	1,000000000000000E+000
8,2236242E-001	1,613829948734534E+001	1,000000000000000E+000
8,1941909E-001	1,580953145324506E+001	1,000000000000000E+000
8,1634516E-001	1,551047692425935E+001	1,000000000000000E+000
8,1340069E-001	1,517842503645524E+001	1,000000000000000E+000
8,1044984E-001	1,487692088640759E+001	1,000000000000000E+000
8,0738127E-001	1,457186038923914E+001	1,000000000000000E+000
8,0434549E-001	1,427295195759014E+001	1,000000000000000E+000
8,0137658E-001	1,396309860601448E+001	1,000000000000000E+000
7,9842806E-001	1,367254803551026E+001	1,000000000000000E+000
7,9545593E-001	1,336701753607142E+001	1,000000000000000E+000
7,9239684E-001	1,306773297654259E+001	1,000000000000000E+000
7,8937489E-001	1,276544636183172E+001	1,000000000000000E+000
7,8633916E-001	1,246960097064778E+001	1,000000000000000E+000
7,8338623E-001	1,217108683811833E+001	1,000000000000000E+000
7,8042805E-001	1,187985606684167E+001	1,000000000000000E+000
7,7737319E-001	1,159677765631622E+001	1,000000000000000E+000
7,7442884E-001	1,131288739484728E+001	1,000000000000000E+000
7,7140582E-001	1,101884632680959E+001	1,000000000000000E+000
7,6839125E-001	1,073203596068282E+001	1,000000000000000E+000
7,6539159E-001	1,044044565593572E+001	1,000000000000000E+000
7,6242495E-001	1,001109213468169E+001	1,000000000000000E+000
7,5939769E-001	9,705755074683751E+000	1,000000000000000E+000
7,5636721E-001	9,433482161927905E+000	1,000000000000000E+000
7,5343126E-001	9,201192229445581E+000	1,000000000000000E+000
7,5037009E-001	8,917926770083772E+000	1,000000000000000E+000
7,4736094E-001	8,633941801327794E+000	1,000000000000000E+000
7,4439096E-001	8,399805127830991E+000	1,000000000000000E+000
7,4140513E-001	8,118824728221838E+000	1,000000000000000E+000
7,3837787E-001	7,852939159759323E+000	1,000000000000000E+000
7,3540163E-001	7,598507717623448E+000	1,000000000000000E+000
7,3239988E-001	7,344704883574366E+000	1,000000000000000E+000
7,2939378E-001	7,090905320414606E+000	1,000000000000000E+000
7,2635406E-001	6,963081988154158E+000	1,000000000000000E+000
7,2340089E-001	6,713945648499930E+000	1,000000000000000E+000
7,2039807E-001	6,465680518590986E+000	1,000000000000000E+000
7,1737933E-001	6,219714832684332E+000	1,000000000000000E+000
7,1440524E-001	5,984359089310459E+000	1,000000000000000E+000
7,1142888E-001	5,746658954558185E+000	1,000000000000000E+000
7,0835072E-001	5,511067243559040E+000	1,000000000000000E+000
7,0542771E-001	5,279487242142771E+000	1,000000000000000E+000
7,0240027E-001	5,055664655708149E+000	1,000000000000000E+000
6,9938892E-001	4,831468435506977E+000	1,000000000000000E+000
6,9641262E-001	4,611517521630894E+000	1,000000000000000E+000
6,9323355E-001	4,399296244255812E+000	1,000000000000000E+000
6,9019353E-001	4,187906699386044E+000	1,000000000000000E+000
6,8720341E-001	3,983464097523907E+000	1,000000000000000E+000
6,8425912E-001	3,779272827676198E+000	1,000000000000000E+000
6,8121588E-001	3,584264542814566E+000	1,000000000000000E+000
6,7821199E-001	3,392584667792384E+000	1,000000000000000E+000
6,7525482E-001	3,204291673102617E+000	1,000000000000000E+000
6,7222965E-001	3,026033562310289E+000	1,000000000000000E+000
6,6921091E-001	2,853733163825353E+000	1,000000000000000E+000
6,6623890E-001	2,679654288031742E+000	1,000000000000000E+000
6,6320336E-001	2,516668237652446E+000	1,000000000000000E+000
6,6022795E-001	2,358083545671697E+000	1,000000000000000E+000
6,5723366E-001	2,205752424676142E+000	1,000000000000000E+000
6,5427536E-001	2,058413492426985E+000	1,000000000000000E+000
6,5120029E-001	1,917602262630748E+000	1,000000000000000E+000
6,4824313E-001	1,782342388719115E+000	1,000000000000000E+000
6,4522022E-001	1,655712939410250E+000	1,000000000000000E+000
6,4224935E-001	1,524156265062864E+000	1,000000000000000E+000
6,3928032E-001	1,365373504692330E+000	1,000000000000000E+000
6,3625520E-001	1,284912126616083E+000	1,000000000000000E+000
6,3319397E-001	1,163078999091914E+000	1,000000000000000E+000
6,3024741E-001	1,072538378827965E+000	1,000000000000000E+000
6,2723935E-001	1,003274887783320E+000	1,000000000000000E+000
6,2430018E-001	9,017845866547010E-001	1,000000000000000E+000
6,2127095E-001	8,264342908123261E-001	1,000000000000000E+000
6,1826587E-001	7,545739783274001E-001	1,000000000000000E+000
6,1518764E-001	6,904026278317873E-001	1,000000000000000E+000
6,1218590E-001	6,275527367321869E-001	1,000000000000000E+000
6,0921168E-001	5,705784496992741E-001	1,000000000000000E+000
6,0626096E-001	5,227194248895053E-001	1,000000000000000E+000
6,0325384E-001	4,728189405062296E-001	1,000000000000000E+000
6,0011184E-001	4,249673062785497E-001	1,000000000000000E+000
5,9713459E-001	3,826393599742337E-001	1,000000000000000E+000
5,9415513E-001	3,436403922512787E-001	1,000000000000000E+000
5,9111303E-001	3,085935694290125E-001	1,000000000000000E+000
5,8815902E-001	2,758345992902029E-001	1,000000000000000E+000
5,8509779E-001	2,464547099592069E-001	1,000000000000000E+000
5,8217567E-001	2,198120778460311E-001	1,000000000000000E+000
5,7919604E-001	1,952538553585246E-001	1,000000000000000E+000
5,7616580E-001	1,733958909917388E-001	1,000000000000000E+000
5,7314491E-001	1,537059581640041E-001	1,000000000000000E+000
5,7010388E-001	1,356032964142035E-001	1,000000000000000E+000
5,6716365E-001	1,196019399579606E-001	1,000000000000000E+000
5,6410456E-001	1,053265841517280E-001	1,000000000000000E+000
5,6111979E-001	9,246761625729794E-002	1,000000000000000E+000
5,5811572E-001	8,089449916540525E-002	1,000000000000000E+000
5,5511731E-001	7,074825659229544E-002	1,000000000000000E+000
5,5214846E-001	6,165339680527993E-002	1,000000000000000E+000
5,4915839E-001	5,367786524808932E-002	1,000000000000000E+000
5,4610562E-001	4,657912009993304E-002	1,000000000000000E+000
5,4292554E-001	4,014227286830152E-002	1,000000000000000E+000
5,3991950E-001	3,475806025535827E-002	1,000000000000000E+000
5,3694248E-001	2,998723862405894E-002	1,000000000000000E+000
5,3392231E-001	2,582587329871430E-002	1,000000000000000E+000
5,3091842E-001	2,220248279244641E-002	1,000000000000000E+000
5,2790809E-001	1,908343680236745E-002	1,000000000000000E+000
5,2488309E-001	1,634764241935288E-002	1,000000000000000E+000
5,2193123E-001	1,395868996272809E-002	1,000000000000000E+000
5,1888162E-001	1,187007818246982E-002	1,000000000000000E+000
5,1590896E-001	1,011583833765506E-002	1,000000000000000E+000
5,1297265E-001	8,536243130444487E-003	1,000000000000000E+000
5,0994539E-001	7,189881736362480E-003	1,000000000000000E+000
5,0697023E-001	5,965278801495610E-003	1,000000000000000E+000
5,0381017E-001	4,554182599491877E-003	1,000000000000000E+000
5,0086790E-001	3,570346968347987E-003	1,000000000000000E+000
4,9779603E-001	2,801874045102695E-003	1,000000000000000E+000
4,9481040E-001	2,055347409273297E-003	1,000000000000000E+000
4,9173945E-001	1,430494337064641E-003	1,000000000000000E+000
4,8880664E-001	8,527612880987884E-004	1,000000000000000E+000
4,8577943E-001	2,860480231607664E-004	1,000000000000000E+000
4,8278931E-001	-2,263530792474787E-004	1,000000000000000E+000
4,7976530E-001	-7,289999166398041E-004	1,000000000000000E+000
4,7687182E-001	-1,188042127124594E-003	1,000000000000000E+000
4,7380984E-001	-1,745889699536991E-003	1,000000000000000E+000
4,7078234E-001	-2,318573138642793E-003	1,000000000000000E+000
4,6784422E-001	-2,909413517837259E-003	1,000000000000000E+000
4,6480635E-001	-3,604602137099552E-003	1,000000000000000E+000
4,6184817E-001	-4,483491960871194E-003	1,000000000000000E+000
4,5877627E-001	-5,568116718023902E-003	1,000000000000000E+000
4,5580107E-001	-6,881773493016701E-003	1,000000000000000E+000
4,5281616E-001	-8,387449871111369E-003	1,000000000000000E+000
4,4978788E-001	-1,019652739229897E-002	1,000000000000000E+000
4,4666943E-001	-1,242775888651582E-002	1,000000000000000E+000
4,4376963E-001	-1,486723602270543E-002	1,000000000000000E+000
4,4072324E-001	-1,719062274470795E-002	1,000000000000000E+000
4,3777558E-001	-1,904347873107551E-002	1,000000000000000E+000
4,3473032E-001	-2,026415197561485E-002	1,000000000000000E+000
4,3167692E-001	-2,079275401481323E-002	1,000000000000000E+000
4,2871511E-001	-2,069483387448717E-002	1,000000000000000E+000
4,2575684E-001	-2,019766904110120E-002	1,000000000000000E+000
4,2272219E-001	-1,969193107957472E-002	1,000000000000000E+000
4,1976923E-001	-1,914252545668733E-002	1,000000000000000E+000
4,1671759E-001	-1,864662155421343E-002	1,000000000000000E+000
4,1370305E-001	-1,813014426578544E-002	1,000000000000000E+000
4,1072300E-001	-1,761793315377333E-002	1,000000000000000E+000
4,0773356E-001	-1,703717064190569E-002	1,000000000000000E+000
4,0475833E-001	-1,626937493682953E-002	1,000000000000000E+000
4,0174910E-001	-1,535520472462437E-002	1,000000000000000E+000
3,9875904E-001	-1,435709408090541E-002	1,000000000000000E+000
3,9571160E-001	-1,331467948056221E-002	1,000000000000000E+000
3,9268968E-001	-1,231514565102056E-002	1,000000000000000E+000
3,8971663E-001	-1,140942789778925E-002	1,000000000000000E+000
3,8672546E-001	-1,057357641110934E-002	1,000000000000000E+000
3,8368976E-001	-9,862661099693859E-003	1,000000000000000E+000
3,8068056E-001	-9,241732717436252E-003	1,000000000000000E+000
3,7775415E-001	-8,693745404259070E-003	1,000000000000000E+000
3,7472159E-001	-8,221476234861524E-003	1,000000000000000E+000
3,7170708E-001	-7,823096571953202E-003	1,000000000000000E+000
3,6871803E-001	-7,473644069522639E-003	1,000000000000000E+000
3,6571097E-001	-7,169855747460606E-003	1,000000000000000E+000
3,6271456E-001	-6,882310066875841E-003	1,000000000000000E+000
3,5970211E-001	-6,629291069263604E-003	1,000000000000000E+000
3,5671526E-001	-6,394589622082641E-003	1,000000000000000E+000
3,5368374E-001	-6,202168410138147E-003	1,000000000000000E+000
3,5074249E-001	-6,009521863238235E-003	1,000000000000000E+000
3,4772691E-001	-5,855367353907737E-003	1,000000000000000E+000
3,4471455E-001	-5,710000441616334E-003	1,000000000000000E+000
3,4175101E-001	-5,566848067469356E-003	1,000000000000000E+000
3,3871737E-001	-5,448385258007261E-003	1,000000000000000E+000
3,3572307E-001	-5,333036673202472E-003	1,000000000000000E+000
3,3278820E-001	-5,216043768173445E-003	1,000000000000000E+000
3,2970467E-001	-5,110209955714554E-003	1,000000000000000E+000
3,2676870E-001	-4,996944531591649E-003	1,000000000000000E+000
3,2375526E-001	-4,909664789134738E-003	1,000000000000000E+000
3,2072484E-001	-4,822163870369397E-003	1,000000000000000E+000
3,1768805E-001	-4,768189384496149E-003	1,000000000000000E+000
3,1474468E-001	-4,677491682217837E-003	1,000000000000000E+000
3,1154647E-001	-4,379125172457102E-003	1,000000000000000E+000
3,0854470E-001	-4,292810900673245E-003	1,000000000000000E+000
3,0553448E-001	-4,226621252817510E-003	1,000000000000000E+000
3,0253270E-001	-4,137347128306657E-003	1,000000000000000E+000
2,9954264E-001	-4,066838897943407E-003	1,000000000000000E+000
2,9652810E-001	-3,987369752347036E-003	1,000000000000000E+000
2,9356563E-001	-3,909222708205630E-003	1,000000000000000E+000
2,9062542E-001	-3,826218469571561E-003	1,000000000000000E+000
2,8755254E-001	-3,769092659279598E-003	1,000000000000000E+000
2,8455606E-001	-3,683192495076107E-003	1,000000000000000E+000
2,8156814E-001	-3,623966870243682E-003	1,000000000000000E+000
2,7855361E-001	-3,570819808745157E-003	1,000000000000000E+000
2,7554336E-001	-3,508653852266584E-003	1,000000000000000E+000
2,7259895E-001	-3,449977260636512E-003	1,000000000000000E+000
2,6958865E-001	-3,409058291932547E-003	1,000000000000000E+000
2,6651043E-001	-3,362572921084689E-003	1,000000000000000E+000
2,6354796E-001	-3,319382560728487E-003	1,000000000000000E+000
2,6065239E-001	-3,277947040874765E-003	1,000000000000000E+000
2,5758055E-001	-3,225055763999785E-003	1,000000000000000E+000
2,5457773E-001	-3,190502223372353E-003	1,000000000000000E+000
2,5158447E-001	-3,139854408008643E-003	1,000000000000000E+000
2,4859437E-001	-3,112620410621349E-003	1,000000000000000E+000
2,4558519E-001	-3,056335017980488E-003	1,000000000000000E+000
2,4260783E-001	-3,013012440770369E-003	1,000000000000000E+000
2,3959333E-001	-2,978307731069343E-003	1,000000000000000E+000
2,3660219E-001	-2,951902927417822E-003	1,000000000000000E+000
2,3365031E-001	-2,913532893237675E-003	1,000000000000000E+000
2,3059274E-001	-2,872343316915882E-003	1,000000000000000E+000
2,2761811E-001	-2,827636082937152E-003	1,000000000000000E+000
2,2462165E-001	-2,802955156364827E-003	1,000000000000000E+000
2,2159018E-001	-2,775708019868459E-003	1,000000000000000E+000
2,1860541E-001	-2,745946661798579E-003	1,000000000000000E+000
2,1554099E-001	-2,719060601859287E-003	1,000000000000000E+000
2,1254559E-001	-2,695294114373132E-003	1,000000000000000E+000
2,0962277E-001	-2,647936779606730E-003	1,000000000000000E+000
2,0666309E-001	-2,622527272172964E-003	1,000000000000000E+000
2,0358066E-001	-2,607279686666277E-003	1,000000000000000E+000
2,0059374E-001	-2,572208484488914E-003	1,000000000000000E+000
1,9759409E-001	-2,554796213505087E-003	1,000000000000000E+000
1,9463693E-001	-2,529228491601851E-003	1,000000000000000E+000
1,9160120E-001	-2,499090234340889E-003	1,000000000000000E+000
1,8859914E-001	-2,498570302341629E-003	1,000000000000000E+000
1,8559767E-001	-2,475635454109074E-003	1,000000000000000E+000
1,8260653E-001	-2,452413588120161E-003	1,000000000000000E+000
1,7960902E-001	-2,419939501065985E-003	1,000000000000000E+000
1,7651379E-001	-2,402171552681624E-003	1,000000000000000E+000
1,7361183E-001	-2,384417701869345E-003	1,000000000000000E+000
1,7058460E-001	-2,358724385619536E-003	1,000000000000000E+000
1,6754650E-001	-2,322275489677901E-003	1,000000000000000E+000
1,6459382E-001	-2,305543991259785E-003	1,000000000000000E+000
1,6160585E-001	-2,277092528623834E-003	1,000000000000000E+000
1,5857328E-001	-2,235471701612844E-003	1,000000000000000E+000
1,5563418E-001	-2,204932457616427E-003	1,000000000000000E+000
1,5257719E-001	-2,183836576929575E-003	1,000000000000000E+000
1,4967631E-001	-2,146773024719804E-003	1,000000000000000E+000
1,4658734E-001	-2,114787497563685E-003	1,000000000000000E+000
1,4358889E-001	-2,104595693632375E-003	1,000000000000000E+000
1,4061368E-001	-2,070076090876068E-003	1,000000000000000E+000
1,3766074E-001	-2,026102756537593E-003	1,000000000000000E+000
1,3463244E-001	-2,009423406821191E-003	1,000000000000000E+000
1,3158607E-001	-1,999302569660893E-003	1,000000000000000E+000
1,2863635E-001	-1,961186292471440E-003	1,000000000000000E+000
1,2558778E-001	-1,940345681508686E-003	1,000000000000000E+000
1,2260627E-001	-1,926267100573975E-003	1,000000000000000E+000
1,1956947E-001	-1,896657206130248E-003	1,000000000000000E+000
1,1660486E-001	-1,871182118799085E-003	1,000000000000000E+000
1,1363176E-001	-1,840169971413216E-003	1,000000000000000E+000
1,1057904E-001	-1,818436745926688E-003	1,000000000000000E+000
1,0762718E-001	-1,791620215401316E-003	1,000000000000000E+000
1,0459890E-001	-1,773182790515665E-003	1,000000000000000E+000
1,0158011E-001	-1,760670914190094E-003	1,000000000000000E+000
9,8563485E-002	-1,730992070907662E-003	1,000000000000000E+000
9,5670030E-002	-1,714688305809814E-003	1,000000000000000E+000
9,2644908E-002	-1,694911149807712E-003	1,000000000000000E+000
8,9664377E-002	-1,676527770983061E-003	1,000000000000000E+000
8,6593591E-002	-1,658203997628134E-003	1,000000000000000E+000
8,3629109E-002	-1,641982895907709E-003	1,000000000000000E+000
8,0614477E-002	-1,624807937010927E-003	1,000000000000000E+000
7,7579804E-002	-1,607664444570535E-003	1,000000000000000E+000
7,4654482E-002	-1,586940196469343E-003	1,000000000000000E+000
7,1607061E-002	-1,582252635351812E-003	1,000000000000000E+000
6,8650961E-002	-1,561709432297116E-003	1,000000000000000E+000
6,5610960E-002	-1,522216099870934E-003	1,000000000000000E+000
6,2592603E-002	-1,509655876469519E-003	1,000000000000000E+000
5,9657343E-002	-1,502865746724820E-003	1,000000000000000E+000
5,6584433E-002	-1,500388289509220E-003	1,000000000000000E+000
5,3587984E-002	-1,473214435072048E-003	1,000000000000000E+000
5,0541624E-002	-1,475736967735998E-003	1,000000000000000E+000
4,7577024E-002	-1,477418157308077E-003	1,000000000000000E+000
4,4597551E-002	-1,458905409449235E-003	1,000000000000000E+000
4,1605558E-002	-1,456534431669827E-003	1,000000000000000E+000
3,8614199E-002	-1,451576541228017E-003	1,000000000000000E+000
3,5586953E-002	-1,429527374589304E-003	1,000000000000000E+000
3,2647833E-002	-1,429848918121618E-003	1,000000000000000E+000
2,9578114E-002	-1,451523693893775E-003	1,000000000000000E+000
2,6627317E-002	-1,439501101744671E-003	1,000000000000000E+000
2,3596881E-002	-1,434200679325835E-003	1,000000000000000E+000
2,0605158E-002	-1,419129364974417E-003	1,000000000000000E+000
1,7565748E-002	-1,421678870806287E-003	1,000000000000000E+000
1,4579910E-002	-1,423151657541488E-003	1,000000000000000E+000
1,1618494E-002	-1,417609260918358E-003	1,000000000000000E+000
8,5657621E-003	-1,431266978675613E-003	1,000000000000000E+000
5,5565648E-003	-1,428369588370157E-003	1,000000000000000E+000
2,6439931E-003	-1,428151387375684E-003	1,000000000000000E+000
-7,0018330E-005	-1,411088799335526E-003	1,000000000000000E+000
6,4327178E-006	-1,422422990549871E-003	1,000000000000000E+000