File: fig_5_ni90fe10_ceo2_tio2_zro2/Activity_2/TiO2_activity_2.txt
Ewe/V	<I>/mA
5,0404209E-001	0,000000000000000E+000
5,0035685E-001	0,000000000000000E+000
6,3660242E-002	-1,493352746476933E+000
6,4233057E-002	-9,027962379427876E-001
6,5222800E-002	-5,863989667371428E-001
6,6343896E-002	-4,583007586117098E-001
6,7416571E-002	-3,842219802278546E-001
6,8465725E-002	-3,378488068593466E-001
6,9435306E-002	-3,028875032034350E-001
7,0432477E-002	-2,753953031684503E-001
7,1424350E-002	-2,532828362455879E-001
7,2455466E-002	-2,348797639806559E-001
7,3485516E-002	-2,193485967278517E-001
7,4421152E-002	-2,061344290050831E-001
7,5452179E-002	-1,945638386468562E-001
7,6430343E-002	-1,843537489214144E-001
7,7449799E-002	-1,752063431534197E-001
7,8469239E-002	-1,669978967998724E-001
7,9490803E-002	-1,594924819951378E-001
8,0477364E-002	-1,528643683864063E-001
8,1463926E-002	-1,468830262532538E-001
8,2457915E-002	-1,412377533885114E-001
8,3446600E-002	-1,360342250693418E-001
8,4455438E-002	-1,313054130461209E-001
8,5471697E-002	-1,269400300755843E-001
8,6459324E-002	-1,229094862346613E-001
8,7490439E-002	-1,190878172888676E-001
8,8449411E-002	-1,154806020325409E-001
8,9488283E-002	-1,120802868692532E-001
9,0469211E-002	-1,089727486169088E-001
9,1461085E-002	-1,060244765802123E-001
9,2473097E-002	-1,031441869849843E-001
9,3492545E-002	-1,005131992576916E-001
9,4484411E-002	-9,804761758107960E-002
9,5479459E-002	-9,576121455136555E-002
9,6445866E-002	-9,346319633206590E-002
9,7439855E-002	-9,136592096262675E-002
9,8465651E-002	-8,932706135506774E-002
9,9438429E-002	-8,742368964651552E-002
1,0047060E-001	-8,552224372667783E-002
1,0145292E-001	-8,370364262129004E-002
1,0246798E-001	-8,199102556006277E-002
1,0344514E-001	-8,039230925121810E-002
1,0442746E-001	-7,882791631242614E-002
1,0545433E-001	-7,730660004416701E-002
1,0645680E-001	-7,582620498745393E-002
1,0743700E-001	-7,441785817442126E-002
1,0850631E-001	-7,306113119063934E-002
1,0945468E-001	-7,174295904653366E-002
1,1043912E-001	-7,047861724006432E-002
1,1144583E-001	-6,927903694292870E-002
1,1241966E-001	-6,804411919141307E-002
1,1345715E-001	-6,689190346475216E-002
1,1442354E-001	-6,578506748329294E-002
1,1543345E-001	-6,474424145594142E-002
1,1644559E-001	-6,369625090532516E-002
1,1742990E-001	-6,270633525449498E-002
1,1845890E-001	-6,170928917557011E-002
1,1945183E-001	-6,075856218203191E-002
1,2044263E-001	-5,979152453393827E-002
1,2141965E-001	-5,885833385558825E-002
1,2242956E-001	-5,795959641105286E-002
1,2342141E-001	-5,705339603691995E-002
1,2443344E-001	-5,621677453633889E-002
1,2541045E-001	-5,538640583943472E-002
1,2644474E-001	-5,459486191264451E-002
1,2742388E-001	-5,378834668561683E-002
1,2845287E-001	-5,300561573236018E-002
1,2946276E-001	-5,227370032842149E-002
1,3046311E-001	-5,152631322596313E-002
1,3146345E-001	-5,083108273526971E-002
1,3248079E-001	-5,011324435599218E-002
1,3347903E-001	-4,942048522073539E-002
1,3447832E-001	-4,876669662974997E-002
1,3538319E-001	-4,810725579084718E-002
1,3641536E-001	-4,747566567678976E-002
1,3741679E-001	-4,683779389016707E-002
1,3843942E-001	-4,621695435543660E-002
1,3948219E-001	-4,556704541988232E-002
1,4043695E-001	-4,499836940932900E-002
1,4164521E-001	-4,452277142240924E-002
1,4264345E-001	-4,398667913768650E-002
1,4365132E-001	-4,342459535647461E-002
1,4463884E-001	-4,290238121084122E-002
1,4561373E-001	-4,236423876057338E-002
1,4668304E-001	-4,182139289213760E-002
1,4766429E-001	-4,126557959650201E-002
1,4860523E-001	-4,076994468073647E-002
1,4963530E-001	-4,028505576291930E-002
1,5060914E-001	-3,977274166788629E-002
1,5169857E-001	-3,929400762866181E-002
1,5260454E-001	-3,881989525342822E-002
1,5365368E-001	-3,831664748149832E-002
1,5463281E-001	-3,785649245808648E-002
1,5564695E-001	-3,738466224869674E-002
1,5663098E-001	-3,694347607339715E-002
1,5765613E-001	-3,646999316120020E-002
1,5864483E-001	-3,603135786745734E-002
1,5962714E-001	-3,558513174961203E-002
1,6061051E-001	-3,517959950662830E-002
1,6163421E-001	-3,477262983192597E-002
1,6258788E-001	-3,434117615714993E-002
1,6360308E-001	-3,393391546631735E-002
1,6458859E-001	-3,354054439893162E-002
1,6559744E-001	-3,312580308997293E-002
1,6661263E-001	-3,275705019593900E-002
1,6763526E-001	-3,236127246246209E-002
1,6862606E-001	-3,198007795491942E-002
1,6964127E-001	-3,161376656393161E-002
1,7060558E-001	-3,125178861074246E-002
1,7163667E-001	-3,086638179567580E-002
1,7263065E-001	-3,052830735834994E-002
1,7362462E-001	-3,016411667861785E-002
1,7461649E-001	-2,983313437990532E-002
1,7561366E-001	-2,948613875612077E-002
1,7660341E-001	-2,911255990689343E-002
1,7763558E-001	-2,877847905072256E-002
1,7862852E-001	-2,844953629433211E-002
1,7962462E-001	-2,814134793850226E-002
1,8064301E-001	-2,779157691880174E-002
1,8164760E-001	-2,746909507312714E-002
1,8262886E-001	-2,714495509287421E-002
1,8363558E-001	-2,683513658464404E-002
1,8464808E-001	-2,654388654806605E-002
1,8564053E-001	-2,624201730829215E-002
1,8665360E-001	-2,594184748408157E-002
1,8761577E-001	-2,562751906185856E-002
1,8861824E-001	-2,533007896206463E-002
1,8961647E-001	-2,504285179657229E-002
1,9063273E-001	-2,475786629627108E-002
1,9161612E-001	-2,448714623592529E-002
1,9262601E-001	-2,421336354069570E-002
1,9364229E-001	-2,396249343113671E-002
1,9459808E-001	-2,367008362578382E-002
1,9563980E-001	-2,339653257355026E-002
1,9663805E-001	-2,314338389078752E-002
1,9766480E-001	-2,283097519455879E-002
1,9861539E-001	-2,259533165343197E-002
1,9965817E-001	-2,234461217962391E-002
2,0062245E-001	-2,206626085259866E-002
2,0163235E-001	-2,183812430873933E-002
2,0262845E-001	-2,156562727198636E-002
2,0361820E-001	-2,134861007304814E-002
2,0465568E-001	-2,108831677119655E-002
2,0562102E-001	-2,084661063911333E-002
2,0667548E-001	-2,058970927677381E-002
2,0763656E-001	-2,036560636239182E-002
2,0864967E-001	-2,014040548944115E-002
2,0963199E-001	-1,990632135133293E-002
2,1065143E-001	-1,967710107388054E-002
2,1162124E-001	-1,947795061673746E-002
2,1265426E-001	-1,924715221958762E-002
2,1362278E-001	-1,900759859426604E-002
2,1461146E-001	-1,880880982164698E-002
2,1559696E-001	-1,859775313325102E-002
2,1662064E-001	-1,837030266131257E-002
2,1765493E-001	-1,816270328728721E-002
2,1868502E-001	-1,796531842603365E-002
2,1964929E-001	-1,776149286796144E-002
2,2065601E-001	-1,752865830895131E-002
2,2163834E-001	-1,734182583746263E-002
2,2267051E-001	-1,713025185019258E-002
2,2365919E-001	-1,694104580888151E-002
2,2461498E-001	-1,673906806778785E-002
2,2560048E-001	-1,654536607189536E-002
2,2659023E-001	-1,636162788402332E-002
2,2761922E-001	-1,616775856512792E-002
2,2862697E-001	-1,598612642268893E-002
2,2966234E-001	-1,577997165140768E-002
2,3064788E-001	-1,557696198523487E-002
2,3167472E-001	-1,537198251440108E-002
2,3267508E-001	-1,518607212960738E-002
2,3365530E-001	-1,503876828648731E-002
2,3465884E-001	-1,485396919311648E-002
2,3565599E-001	-1,465296404079330E-002
2,3661813E-001	-1,446491600803043E-002
2,3767576E-001	-1,429568501302860E-002
2,3862964E-001	-1,412499513006374E-002
2,3964041E-001	-1,398266416479665E-002
2,4065033E-001	-1,380058899764691E-002
2,4164854E-001	-1,363723407538556E-002
2,4264996E-001	-1,344715816017909E-002
2,4365562E-001	-1,329421004464709E-002
2,4466020E-001	-1,314136448824174E-002
2,4563296E-001	-1,298060173658727E-002
2,4665879E-001	-1,282384273975717E-002
2,4765384E-001	-1,267975497193100E-002
2,4862236E-001	-1,253593468137382E-002
2,4964075E-001	-1,235029639772829E-002
2,5065702E-001	-1,220581148483929E-002
2,5165311E-001	-1,204777138616283E-002
2,5264326E-001	-1,191373127443690E-002
2,5360823E-001	-1,175897649169660E-002
2,5464886E-001	-1,162182267121981E-002
2,5566304E-001	-1,147286749926407E-002
2,5665274E-001	-1,132022549432299E-002
2,5762975E-001	-1,117257742442732E-002
2,5863755E-001	-1,103597306077529E-002
2,5961348E-001	-1,090511843409549E-002
2,6063082E-001	-1,076104115044580E-002
2,6165980E-001	-1,060252097412065E-002
2,6262411E-001	-1,046361504642659E-002
2,6363611E-001	-1,032891136537627E-002
2,6463857E-001	-1,019456134014871E-002
2,6560584E-001	-1,008086943279968E-002
2,6667961E-001	-9,931089522585271E-003
2,6761845E-001	-9,808945584785678E-003
2,6864317E-001	-9,670021625519692E-003
2,6966581E-001	-9,532563237218905E-003
2,7060038E-001	-9,412703975914198E-003
2,7168030E-001	-9,289383870755898E-003
2,7263400E-001	-9,162455047491289E-003
2,7363008E-001	-9,034857335181001E-003
2,7462301E-001	-8,915590150258014E-003
2,7564353E-001	-8,792089439992976E-003
2,7664068E-001	-8,667082292761086E-003
2,7759647E-001	-8,541345414430995E-003
2,7862760E-001	-8,433061773976402E-003
2,7961761E-001	-8,320996701372124E-003
2,8065059E-001	-8,194788465291661E-003
2,8158835E-001	-8,092220619615453E-003
2,8262690E-001	-7,978988886344088E-003
2,8363255E-001	-7,855109988696984E-003
2,8465518E-001	-7,746091522191939E-003
2,8566402E-001	-7,645133792413709E-003
2,8662828E-001	-7,528227002253279E-003
2,8762761E-001	-7,420193446724076E-003
2,8866187E-001	-7,312169430651772E-003
2,8963464E-001	-7,201560923754152E-003
2,9062334E-001	-7,080677718683301E-003
2,9166615E-001	-6,981631119979986E-003
2,9264441E-001	-6,882530586741372E-003
2,9360211E-001	-6,797280411715290E-003
2,9466081E-001	-6,689943399007350E-003
2,9564950E-001	-6,584592293573097E-003
2,9665512E-001	-6,488490728170412E-003
2,9761094E-001	-6,395974932668774E-003
2,9863888E-001	-6,290166609753716E-003
2,9964557E-001	-6,194190263284619E-003
3,0064276E-001	-6,090475310028473E-003
3,0163887E-001	-6,005106486076226E-003
3,0260956E-001	-5,902896442264771E-003
3,0361092E-001	-5,824035800149480E-003
3,0463147E-001	-5,725849304835773E-003
3,0566576E-001	-5,640145887805804E-003
3,0665350E-001	-5,532150416779333E-003
3,0761236E-001	-5,445971923311130E-003
3,0865088E-001	-5,352553978327165E-003
3,0960774E-001	-5,270440000953586E-003
3,1063139E-001	-5,168001942159439E-003
3,1159997E-001	-5,097692504619181E-003
3,1259286E-001	-5,002803669697575E-003
3,1363568E-001	-4,927391670496436E-003
3,1463495E-001	-4,828644802540694E-003
3,1555367E-001	-4,751230517945820E-003
3,1659961E-001	-4,675162901210672E-003
3,1761375E-001	-4,576175053142770E-003
3,1861198E-001	-4,503918411715692E-003
3,1958270E-001	-4,408900157155652E-003
3,2063425E-001	-4,349236435612018E-003
3,2160136E-001	-4,274720005692914E-003
3,2264307E-001	-4,187817800500468E-003
3,2360736E-001	-4,120473318657787E-003
3,2457691E-001	-4,042976847155488E-003
3,2560489E-001	-3,955307009098259E-003
3,2660738E-001	-3,878137896491052E-003
3,2761300E-001	-3,782164529303852E-003
3,2857728E-001	-3,734606112832108E-003
3,2960945E-001	-3,647013503438830E-003
3,3061832E-001	-3,567834763683150E-003
3,3159319E-001	-3,503404541866090E-003
3,3257872E-001	-3,420543193833246E-003
3,3362153E-001	-3,353526546269931E-003
3,3459955E-001	-3,267680914043565E-003
3,3566567E-001	-3,208487009449566E-003
3,3664376E-001	-3,141479175342465E-003
3,3762610E-001	-3,073483828370499E-003
3,3867735E-001	-2,984241214794667E-003
3,3962256E-001	-2,947910797263920E-003
3,4059533E-001	-2,858668212115487E-003
3,4164870E-001	-2,796714579579744E-003
3,4260133E-001	-2,744598533929689E-003
3,4362394E-001	-2,667154943278925E-003
3,4462747E-001	-2,590663739694044E-003
3,4562150E-001	-2,525700738256517E-003
3,4662771E-001	-2,488585108434416E-003
3,4759599E-001	-2,403471444540728E-003
3,4864694E-001	-2,357813552818019E-003
3,4963030E-001	-2,303040116394978E-003
3,5063806E-001	-2,233950579305317E-003
3,5160974E-001	-2,156540345999935E-003
3,5264409E-001	-2,109234451338474E-003
3,5360730E-001	-2,045017185713618E-003
3,5464370E-001	-1,977184363984669E-003
3,5559314E-001	-1,942402285182131E-003
3,5663807E-001	-1,864148946081005E-003
3,5764688E-001	-1,823611695776368E-003
3,5858995E-001	-1,740232680089003E-003
3,5964018E-001	-1,686661219671252E-003
3,6061171E-001	-1,632554452688199E-003
3,6163130E-001	-1,566108673430955E-003
3,6260197E-001	-1,513582276508510E-003
3,6361927E-001	-1,463471358495338E-003
3,6462387E-001	-1,395559824730979E-003
3,6559880E-001	-1,357375822911566E-003
3,6659706E-001	-1,308525226700535E-003
3,6760479E-001	-1,233788707952273E-003
3,6862105E-001	-1,197651840793321E-003
3,6958006E-001	-1,118966864440837E-003
3,7056664E-001	-1,090538457367712E-003
3,7157968E-001	-1,033766401841623E-003
3,7260339E-001	-9,839312192267743E-004
3,7359843E-001	-9,485558606139796E-004
3,7461558E-001	-8,692670586470247E-004
3,7556091E-001	-8,186236988408635E-004
3,7658462E-001	-7,601559734209213E-004
3,7762639E-001	-7,293116946351583E-004
3,7858430E-001	-6,735191373062419E-004
3,7960261E-001	-6,272722189621088E-004
3,8061574E-001	-5,879448816748260E-004
3,8159594E-001	-5,440836153969911E-004
3,8261858E-001	-4,911372692758863E-004
3,8363269E-001	-4,272001420754250E-004
3,8464794E-001	-3,697003935083402E-004
3,8563025E-001	-3,470778882205252E-004
3,8663059E-001	-2,851518519102174E-004
3,8760507E-001	-2,252815309179263E-004
3,8858885E-001	-1,790072216627204E-004
3,8959450E-001	-1,254227573993503E-004
3,9058211E-001	-1,229663272789214E-004
3,9159623E-001	-4,707624494253572E-005
3,9262736E-001	2,965411868669252E-006
3,9361498E-001	4,348814015112183E-005
3,9458883E-001	8,906591893222430E-005
3,9555204E-001	1,400777243713145E-004
3,9662132E-001	1,772532636720638E-004
3,9764506E-001	2,326091202543090E-004
3,9859870E-001	2,914723889312481E-004
3,9957464E-001	3,572364448004642E-004
4,0063018E-001	3,779922732506068E-004
4,0160948E-001	4,314929306047932E-004
4,0262669E-001	5,140665616956055E-004
4,0364075E-001	5,403589357923814E-004
4,0459448E-001	5,767065302685944E-004
4,0561289E-001	6,164229690087186E-004
4,0661108E-001	6,700088787015570E-004
4,0766236E-001	7,329982022373461E-004
4,0860757E-001	7,894057668699243E-004
4,0958455E-001	8,290160872268409E-004
4,1067192E-001	8,540618152340761E-004
4,1168073E-001	9,107357259041122E-004
4,1268530E-001	9,630201633427718E-004
4,1370371E-001	1,009481395521190E-003
4,1466799E-001	1,048174322706198E-003
4,1568249E-001	1,089884681172222E-003
4,1666657E-001	1,144703205754345E-003
4,1770932E-001	1,173942819678360E-003
4,1868320E-001	1,222098349845548E-003
4,1965172E-001	1,274278882002712E-003
4,2067859E-001	1,298836653604625E-003
4,2169595E-001	1,332794926320009E-003
4,2267820E-001	1,391185424120658E-003
4,2367962E-001	1,446841549380202E-003
4,2469269E-001	1,482781350229934E-003
4,2567933E-001	1,551112888961047E-003
4,2667645E-001	1,581806389850143E-003
4,2770013E-001	1,618132277825046E-003
4,2870545E-001	1,673425198421239E-003
4,2964569E-001	1,706413544149930E-003
4,3067145E-001	1,758658911878681E-003
4,3167713E-001	1,796623475007132E-003
4,3268493E-001	1,842009220498004E-003
4,3364817E-001	1,877316674404994E-003
4,3467289E-001	1,946489957865824E-003
4,3565419E-001	1,960272842090535E-003
4,3668950E-001	2,024277607450218E-003
4,3769306E-001	2,050052426287918E-003
4,3867749E-001	2,087235902513946E-003
4,3968639E-001	2,134899099803814E-003
4,4071850E-001	2,179399890533597E-003
4,4168809E-001	2,227257281218316E-003
4,4268438E-001	2,268658720579232E-003
4,4365588E-001	2,309967955520156E-003
4,4464883E-001	2,335266412331234E-003
4,4568524E-001	2,385226516786290E-003
4,4668457E-001	2,429326573739732E-003
4,4768167E-001	2,470938798671461E-003
4,4868949E-001	2,521720199396033E-003
4,4970149E-001	2,563994833481527E-003
4,5069021E-001	2,614593160685316E-003
4,5165130E-001	2,654456010101128E-003
4,5267820E-001	2,695346294983837E-003
4,5369124E-001	2,730024134589878E-003
4,5466825E-001	2,788730272794887E-003
4,5568237E-001	2,831392364824166E-003
4,5669758E-001	2,887890687405840E-003
4,5767251E-001	2,936396388500823E-003
4,5867497E-001	3,000768894666772E-003
4,5967749E-001	3,039854386908635E-003
4,6066615E-001	3,111219298932127E-003
4,6165055E-001	3,148058291397686E-003
4,6268168E-001	3,226747163398512E-003
4,6364596E-001	3,305402515442098E-003
4,6464950E-001	3,379408658831642E-003
4,6569118E-001	3,483560310477141E-003
4,6665975E-001	3,600907032356915E-003
4,6770251E-001	3,696316576184282E-003
4,6864989E-001	3,819287908396821E-003
4,6963850E-001	3,956442803602800E-003
4,7064316E-001	4,100649679119779E-003
4,7164240E-001	4,270262510437616E-003
4,7264063E-001	4,463581723644652E-003
4,7362509E-001	4,646910763070590E-003
4,7464773E-001	4,853653676106746E-003
4,7566822E-001	5,075129752666135E-003
4,7665161E-001	5,332204352982747E-003
4,7768164E-001	5,560350299854022E-003
4,7870108E-001	5,784269947382563E-003
4,7968346E-001	6,023248533678416E-003
4,8069015E-001	6,245465748948659E-003
4,8167670E-001	6,500757478474270E-003
4,8264313E-001	6,760436902073438E-003
4,8364186E-001	7,053492881322204E-003
4,8466823E-001	7,353563140312200E-003
4,8565897E-001	7,686454717683873E-003
4,8666149E-001	8,037737301311076E-003
4,8770532E-001	8,455590160047211E-003
4,8868024E-001	8,865501656663742E-003
4,8967212E-001	9,345859120089908E-003
4,9070635E-001	9,824071212208713E-003
4,9169719E-001	1,036035263737453E-002
4,9268484E-001	1,092891505554580E-002
4,9368727E-001	1,149112711611198E-002
4,9465159E-001	1,211302148288033E-002
4,9569327E-001	1,279625047038913E-002
4,9661174E-001	1,347923381644157E-002
4,9762189E-001	1,417630984880300E-002
4,9868268E-001	1,493788635529270E-002
4,9968413E-001	1,563423847707829E-002
5,0066853E-001	1,635979265771814E-002
5,0171876E-001	1,709922568428027E-002
5,0271380E-001	1,780217727490488E-002
5,0366539E-001	1,850718480736541E-002
5,0468272E-001	1,918948109366231E-002
5,0564373E-001	1,984211929021562E-002
5,0670034E-001	2,042910066600084E-002
5,0765508E-001	2,104560130612629E-002
5,0870633E-001	2,166708543592569E-002
5,0971377E-001	2,230174578218602E-002
5,1065505E-001	2,290730250675344E-002
5,1167983E-001	2,355774577093034E-002
5,1267064E-001	2,419498782866797E-002
5,1363599E-001	2,486110776990152E-002
5,1465964E-001	2,568061967605256E-002
5,1567382E-001	2,647813352494327E-002
5,1664442E-001	2,738807623748740E-002
5,1766604E-001	2,841332849498446E-002
5,1869076E-001	2,944509593332761E-002
5,1967311E-001	3,057095970612145E-002
5,2066922E-001	3,184478706891415E-002
5,2165365E-001	3,319151232904960E-002
5,2265084E-001	3,475125922368494E-002
5,2367860E-001	3,630016635050959E-002
5,2467376E-001	3,801457672892050E-002
5,2563280E-001	3,976119627047309E-002
5,2663207E-001	4,162010917299634E-002
5,2769709E-001	4,355291431361086E-002
5,2866036E-001	4,552285003691268E-002
5,2965331E-001	4,759600223570026E-002
5,3065997E-001	4,971671191491883E-002
5,3166455E-001	5,186305672422364E-002
5,3263730E-001	5,406814225465717E-002
5,3361750E-001	5,655590240693686E-002
5,3466457E-001	5,910697729958203E-002
5,3568083E-001	6,197606844937359E-002
5,3667903E-001	6,516975750924914E-002
5,3767866E-001	6,870545980311626E-002
5,3866702E-001	7,282028931231055E-002
5,3970343E-001	7,758822402855592E-002
5,4069221E-001	8,291906251966996E-002
5,4167867E-001	8,938620476075387E-002
5,4267907E-001	9,651325782549791E-002
5,4372466E-001	1,050292597582869E-001
5,4479539E-001	1,143728315179784E-001
5,4575855E-001	1,237702394567446E-001
5,4676324E-001	1,337783940721415E-001
5,4773706E-001	1,440488965643354E-001
5,4876715E-001	1,545294690444273E-001
5,4980779E-001	1,650316995767086E-001
5,5078155E-001	1,754383388089265E-001
5,5174375E-001	1,855979855415195E-001
5,5276746E-001	1,956425903707138E-001
5,5380917E-001	2,053147593635614E-001
5,5476284E-001	2,146280808733305E-001
5,5576849E-001	2,234739791454068E-001
5,5678046E-001	2,318521390485309E-001
5,5776066E-001	2,397882113963909E-001
5,5876321E-001	2,471972748240168E-001
5,5975294E-001	2,544705958618811E-001
5,6077129E-001	2,611065206166496E-001
5,6175357E-001	2,673567896286495E-001
5,6276774E-001	2,732589797258314E-001
5,6375110E-001	2,786543597667874E-001
5,6472540E-001	2,839104224308491E-001
5,6574863E-001	2,888218856684848E-001
5,6672359E-001	2,933885447359957E-001
5,6774622E-001	2,977097233242088E-001
5,6875706E-001	3,020018581723352E-001
5,6975538E-001	3,058938281969619E-001
5,7076317E-001	3,096387680100436E-001
5,7176137E-001	3,131631398446801E-001
5,7273948E-001	3,166205812891829E-001
5,7377481E-001	3,199725101497060E-001
5,7478362E-001	3,229333180744128E-001
5,7575005E-001	3,259524607845066E-001
5,7674509E-001	3,284956850069249E-001
5,7773423E-001	3,313896917084003E-001
5,7879245E-001	3,336699685202920E-001
5,7975668E-001	3,361927477744251E-001
5,8073699E-001	3,383193078457194E-001
5,8174795E-001	3,404539237284601E-001
5,8276206E-001	3,424797727897473E-001
5,8373374E-001	3,440360729656519E-001
5,8477235E-001	3,460543067733033E-001
5,8573341E-001	3,475573053097776E-001
5,8675075E-001	3,493412880611313E-001
5,8774793E-001	3,508118841577499E-001
5,8875781E-001	3,523420515278008E-001
5,8976668E-001	3,538314009976506E-001
5,9078819E-001	3,552034331291338E-001
5,9175587E-001	3,564672000887184E-001
5,9279424E-001	3,580809513808070E-001
5,9380943E-001	3,594294041374075E-001
5,9478015E-001	3,610796184826004E-001
5,9578997E-001	3,624743375897648E-001
5,9676164E-001	3,641927556859126E-001
5,9773344E-001	3,657941384169199E-001
5,9874648E-001	3,677540786074402E-001
5,9977543E-001	3,698568767561756E-001
6,0076845E-001	3,719855493521678E-001
6,0174751E-001	3,744683278716099E-001
6,0278714E-001	3,769531959600219E-001
6,0376096E-001	3,798254134150359E-001
6,0475898E-001	3,826271773359320E-001
6,0575575E-001	3,859703371881960E-001
6,0677153E-001	3,893410241307351E-001
6,0778362E-001	3,929074397162787E-001
6,0875952E-001	3,966412200949363E-001
6,0976207E-001	4,008141993175407E-001
6,1075288E-001	4,051727645116053E-001
6,1177868E-001	4,099676238284218E-001
6,1273122E-001	4,150835257023566E-001
6,1378783E-001	4,200248616048547E-001
6,1475420E-001	4,255673521728416E-001
6,1578429E-001	4,313855629853585E-001
6,1677825E-001	4,375907495246175E-001
6,1776376E-001	4,440718491027411E-001
6,1874092E-001	4,507924767088687E-001
6,1976027E-001	4,580007969167346E-001
6,2074888E-001	4,653082052646980E-001
6,2172067E-001	4,728560747405571E-001
6,2274110E-001	4,806407836145494E-001
6,2375736E-001	4,893813561817080E-001
6,2474191E-001	4,980974670313731E-001
6,2573159E-001	5,072985890906417E-001
6,2674153E-001	5,167083179329004E-001
6,2775350E-001	5,268900484699852E-001
6,2873161E-001	5,370850017856066E-001
6,2972242E-001	5,479904578876198E-001
6,3076514E-001	5,589471904565126E-001
6,3176459E-001	5,708150149160858E-001
6,3278913E-001	5,826115770127061E-001
6,3375348E-001	5,952721675203208E-001
6,3476652E-001	6,077895324356213E-001
6,3573939E-001	6,219034230171840E-001
6,3677573E-001	6,353925941237470E-001
6,3774002E-001	6,503475758409687E-001
6,3878495E-001	6,650077746568601E-001
6,3974822E-001	6,810597748983489E-001
6,4074957E-001	6,972911235477257E-001
6,4178813E-001	7,141140504885879E-001
6,4279383E-001	7,312945471126255E-001
6,4374852E-001	7,498829753566802E-001
6,4473295E-001	7,676334167765138E-001
6,4575130E-001	7,877116133902291E-001
6,4677930E-001	8,072743873848927E-001
6,4771914E-001	8,279365246308754E-001
6,4873964E-001	8,496934159863709E-001
6,4971989E-001	8,710773376042589E-001
6,5074462E-001	8,947516922118801E-001
6,5173751E-001	9,180888729740158E-001
6,5274531E-001	9,430263263179732E-001
6,5372229E-001	9,674437839005634E-001
6,5477359E-001	9,941190147092449E-001
6,5576547E-001	1,020086401579330E+000
6,5678805E-001	1,048382985830110E+000
6,5781277E-001	1,078999402153555E+000
6,5886217E-001	1,111971113148524E+000
6,5986538E-001	1,142047082805643E+000
6,6086262E-001	1,174199320468841E+000
6,6183227E-001	1,207501259968190E+000
6,6285914E-001	1,240357546266718E+000
6,6384363E-001	1,275062070259835E+000
6,6488647E-001	1,310963480000524E+000
6,6584110E-001	1,347903120950236E+000
6,6684359E-001	1,385747707442565E+000
6,6782272E-001	1,425551421517961E+000
6,6884750E-001	1,465403750091120E+000
6,6986483E-001	1,507330388768393E+000
6,7083120E-001	1,550303220613743E+000
6,7186230E-001	1,591962067532833E+000
6,7287970E-001	1,638495048770583E+000
6,7383754E-001	1,683129543349859E+000
6,7484635E-001	1,731912833222459E+000
6,7584670E-001	1,779197747238374E+000
6,7682266E-001	1,829676818736154E+000
6,7787820E-001	1,880830553535578E+000
6,7887223E-001	1,932136793407592E+000
6,7983013E-001	1,985095913211509E+000
6,8083900E-001	2,040769886335269E+000
6,8189240E-001	2,093768282981408E+000
6,8288738E-001	2,154733221124761E+000
6,8383896E-001	2,207933448795705E+000
6,8488181E-001	2,272135718998047E+000
6,8586850E-001	2,331555526570099E+000
6,8683290E-001	2,394459966355472E+000
6,8786687E-001	2,460010782424826E+000
6,8884712E-001	2,521120810877035E+000
6,8982202E-001	2,587737058718060E+000
6,9083929E-001	2,653082918755871E+000
6,9187993E-001	2,725491072315215E+000
6,9286656E-001	2,792258985999493E+000
6,9386899E-001	2,863272500720697E+000
6,9484282E-001	2,932535314438290E+000
6,9589096E-001	3,009759096804643E+000
6,9687432E-001	3,083453603967378E+000
6,9789690E-001	3,159421376326463E+000
6,9883043E-001	3,237730251147910E+000
6,9984865E-001	3,309177976188749E+000
7,0084709E-001	3,393547871283133E+000
7,0185483E-001	3,474344649992034E+000
7,0289755E-001	3,546497911349981E+000
7,0385975E-001	3,629198916543622E+000
7,0483786E-001	3,716249672159588E+000
7,0582229E-001	3,796992018379612E+000
7,0688421E-001	3,891983322849896E+000
7,0785689E-001	3,970504855724435E+000
7,0886689E-001	4,058054483193654E+000
7,0988423E-001	4,148508160089953E+000
7,1086967E-001	4,233192894126285E+000
7,1190715E-001	4,327079151628240E+000
7,1285617E-001	4,413019089582122E+000
7,1381801E-001	4,513404841709642E+000
7,1486044E-001	4,600588749629576E+000
7,1584070E-001	4,699058875407744E+000
7,1686852E-001	4,785134377967474E+000
7,1784037E-001	4,890333318994166E+000
7,1886927E-001	4,978067828650655E+000
7,1987706E-001	5,082387957781094E+000
7,2086155E-001	5,173981804797720E+000
7,2184390E-001	5,280129078159007E+000
7,2285473E-001	5,384785110143582E+000
7,2384346E-001	5,473684323111091E+000
7,2485334E-001	5,587193253562049E+000
7,2584945E-001	5,679146038870968E+000
7,2684211E-001	5,793244733970674E+000
7,2784698E-001	5,886981811585613E+000
7,2878903E-001	6,016092599891209E+000
7,2984552E-001	6,104458588422546E+000
7,3087144E-001	6,224861993743737E+000
7,3185796E-001	6,309133978928019E+000
7,3289651E-001	6,425926945174325E+000
7,3381406E-001	6,528309701994701E+000
7,3484945E-001	6,628126629896454E+000
7,3586255E-001	6,754566299739601E+000
7,3684490E-001	6,846461536865405E+000
7,3781657E-001	6,978663488918436E+000
7,3883283E-001	7,085374204885412E+000
7,3985648E-001	7,201176866517272E+000
7,4081200E-001	7,293737842733268E+000
7,4186778E-001	7,423067836602044E+000
7,4283421E-001	7,516266668599727E+000
7,4383461E-001	7,638136593189898E+000
7,4486673E-001	7,763260745610239E+000
7,4587035E-001	7,883187470590173E+000
7,4685687E-001	7,999005048047934E+000
7,4785507E-001	8,125350966542721E+000
7,4884379E-001	8,235746493009771E+000
7,4987066E-001	8,365356387532522E+000
7,5084019E-001	8,462174517227176E+000
7,5185537E-001	8,583522620722789E+000
7,5284731E-001	8,706788844194563E+000
7,5387001E-001	8,828467596753356E+000
7,5487030E-001	8,943840759974577E+000
7,5586742E-001	9,058985419486874E+000
7,5686461E-001	9,178835226227079E+000
7,5785857E-001	9,327576598950799E+000
7,5888658E-001	9,429459253811785E+000
7,5985402E-001	9,569269084065411E+000
7,6084477E-001	9,677379404133418E+000
7,6180804E-001	9,808427815940087E+000
7,6283598E-001	9,956285682394949E+000
7,6385009E-001	1,005600470385585E+001
7,6487803E-001	1,018610986100850E+001
7,6582956E-001	1,029790409257353E+001
7,6684695E-001	1,044905276032261E+001
7,6781458E-001	1,053460012712466E+001
7,6885194E-001	1,068189902039345E+001
7,6994729E-001	1,074997555045115E+001
7,7102977E-001	1,096527688742493E+001
7,7204067E-001	1,112556114691455E+001
7,7302301E-001	1,122938535002626E+001
7,7401912E-001	1,137725636903663E+001
7,7506405E-001	1,147528877009597E+001
7,7605057E-001	1,163295013908626E+001
7,7702546E-001	1,172925074726278E+001
7,7805662E-001	1,189420607794171E+001
7,7902400E-001	1,196941926298229E+001
7,8002125E-001	1,214714594959125E+001
7,8103817E-001	1,224577507319925E+001
7,8200382E-001	1,239613825995094E+001
7,8304130E-001	1,255309493106511E+001
7,8402156E-001	1,266238647834513E+001
7,8499532E-001	1,279910560759833E+001
7,8604138E-001	1,290683876697705E+001
7,8704166E-001	1,304083598038511E+001
7,8805804E-001	1,316239968624785E+001
7,8902769E-001	1,330494340409484E+001
7,9001945E-001	1,345241094879012E+001
7,9106116E-001	1,358392401549821E+001
7,9204029E-001	1,374387032604542E+001
7,9305232E-001	1,384617160088352E+001
7,9402077E-001	1,400775574164604E+001
7,9506367E-001	1,408939138474079E+001
7,9605657E-001	1,424902781080496E+001
7,9702502E-001	1,437558504932323E+001
7,9805827E-001	1,451071915429195E+001
7,9905969E-001	1,461720886387258E+001
8,0003458E-001	1,478637120080374E+001
8,0108273E-001	1,488049607914858E+001
8,0204493E-001	1,507142275652919E+001
8,0301017E-001	1,518367372780968E+001
8,0405092E-001	1,536940441150517E+001
8,0503422E-001	1,545051060404097E+001
8,0601227E-001	1,563352344757840E+001
8,0704874E-001	1,571960464045574E+001
8,0807251E-001	1,584667550715477E+001
8,0903023E-001	1,597003503865659E+001
8,1007314E-001	1,607304362631704E+001
8,1106609E-001	1,626491346597135E+001
8,1203890E-001	1,639719623070465E+001
8,1304240E-001	1,651762011045771E+001
8,1401300E-001	1,664866437622756E+001
8,1503451E-001	1,680614807370569E+001
8,1601995E-001	1,692284984329120E+001
8,1703955E-001	1,708508059294581E+001
8,1802285E-001	1,720232825646860E+001
8,1904447E-001	1,740157690718600E+001
8,2007360E-001	1,747124080363312E+001
8,2106423E-001	1,761220043262398E+001
8,2210279E-001	1,781095671586164E+001
8,2306308E-001	1,787811080496930E+001
8,2404405E-001	1,805308327369407E+001
8,2510597E-001	1,828619806823278E+001
8,2605642E-001	1,829548673997391E+001
8,2707697E-001	1,846990441667802E+001
8,2807732E-001	1,862419094223009E+001
8,2907873E-001	1,873008337596652E+001
8,3004844E-001	1,889851561479290E+001
8,3105087E-001	1,897674810710686E+001
8,3207548E-001	1,919397988665401E+001
8,3310246E-001	1,927799058055132E+001
8,3406031E-001	1,946341085731316E+001
8,3507556E-001	1,949999189430889E+001
8,3605045E-001	1,972479974456274E+001
8,3708483E-001	1,981990781311555E+001
8,3807230E-001	2,001204076848603E+001
8,3907372E-001	2,010772655285945E+001
8,4006673E-001	2,023752391338351E+001
8,4105217E-001	2,038365943199383E+001
8,4206206E-001	2,053112283531499E+001
8,4309423E-001	2,061024441673106E+001
8,4408087E-001	2,082899228110063E+001
8,4507167E-001	2,089815557935631E+001
8,4610170E-001	2,108957834159969E+001
8,4708941E-001	2,119168313249708E+001
8,4806949E-001	2,130820649794718E+001
8,4909534E-001	2,141670638579632E+001
8,5006386E-001	2,162760963459968E+001
8,5110027E-001	2,174904604982623E+001
8,5210270E-001	2,192007799402651E+001
8,5305959E-001	2,205562797736147E+001
8,5408640E-001	2,223272296211877E+001
8,5507941E-001	2,229713548824634E+001
8,5610527E-001	2,251710601769332E+001
8,5707372E-001	2,253032013158958E+001
8,5806990E-001	2,280358499721058E+001
8,5907447E-001	2,285901986403798E+001
8,6007482E-001	2,301889824529357E+001
8,6110801E-001	2,315837956299322E+001
8,6211896E-001	2,327386415085817E+001
8,6311060E-001	2,343996510733859E+001
8,6409956E-001	2,361283195613453E+001
8,6503834E-001	2,367764117658271E+001
8,6604929E-001	2,383308293827548E+001
8,6703062E-001	2,397937554391331E+001
8,6809570E-001	2,418625629718606E+001
8,6909705E-001	2,428585112500355E+001
8,7005919E-001	2,434472936499964E+001
8,7106699E-001	2,455808925493506E+001
8,7205249E-001	2,473759572549204E+001
8,7307090E-001	2,481265734504416E+001
8,7408185E-001	2,498995998643690E+001
8,7508965E-001	2,510337686606277E+001
8,7612605E-001	2,527594944354898E+001
8,7706697E-001	2,536846876002789E+001
8,7806410E-001	2,558296107245690E+001
8,7904966E-001	2,566493480167696E+001
8,8008296E-001	2,584868704921263E+001
8,8108218E-001	2,596385131833767E+001
8,8205808E-001	2,607883008429258E+001
8,8306493E-001	2,630954298410825E+001
8,8409913E-001	2,642217525657350E+001
8,8505608E-001	2,649648517410773E+001
8,8606489E-001	2,670742997236530E+001
8,8706094E-001	2,671675983902543E+001
8,8808030E-001	2,698188940251501E+001
8,8908714E-001	2,711437095049553E+001
8,9004081E-001	2,724976057854911E+001
8,9106447E-001	2,745086423338319E+001
8,9205742E-001	2,741239066296953E+001
8,9303011E-001	2,768613314304224E+001
8,9406341E-001	2,776670928093318E+001
8,9507967E-001	2,785042476086397E+001
8,9609700E-001	2,796118615219643E+001
8,9710903E-001	2,805196826149825E+001
8,9809352E-001	2,821638234104967E+001
8,9893693E-001	2,833500947149429E+001
8,9930308E-001	2,891322766817535E+001