File: fig_5_ni90fe10_ceo2_tio2_zro2/Activity_2/ZrO2_ACTIVITY_2.txt
Ewe/V	<I>/mA
4,634173810482025E-001	0,000000000000000E+000
4,608395993709564E-001	0,000000000000000E+000
6,349726766347885E-002	-6,332823501692886E-001
6,407750397920609E-002	-2,041059780006389E-001
6,505770236253738E-002	-9,589876441597567E-002
6,603047251701355E-002	-7,012580950847913E-002
6,707750260829926E-002	-5,720236693147795E-002
6,804072111845016E-002	-4,900396829302023E-002
6,910727918148041E-002	-4,310697501425154E-002
7,017509639263153E-002	-3,848456916353893E-002
7,115528732538223E-002	-3,500561512317180E-002
7,217049598693848E-002	-3,212706658217312E-002
7,316660135984421E-002	-2,975148790702858E-002
7,418923079967499E-002	-2,771175083152037E-002
7,519640773534775E-002	-2,598528291578500E-002
7,617720216512680E-002	-2,446906280185382E-002
7,715845853090286E-002	-2,319146891807200E-002
7,818427681922913E-002	-2,202186284691321E-002
7,920265942811966E-002	-2,100880464864689E-002
8,018391579389572E-002	-2,010491349345792E-002
8,122033625841141E-002	-1,929614173465935E-002
8,212626725435257E-002	-1,855362641816233E-002
8,315102010965347E-002	-1,788276379921128E-002
8,416834473609924E-002	-1,725688603003941E-002
8,514642715454102E-002	-1,670139464560277E-002
8,614889532327652E-002	-1,618643290753412E-002
8,717754483222961E-002	-1,569556039454612E-002
8,813687413930893E-002	-1,527323821942847E-002
8,914888650178909E-002	-1,485558235904315E-002
9,016621112823486E-002	-1,448122839165678E-002
9,118247032165527E-002	-1,412153368155300E-002
9,218389540910721E-002	-1,377310320342173E-002
9,320120513439178E-002	-1,346185973509111E-002
9,415064007043839E-002	-1,316558259598449E-002
9,519025683403015E-002	-1,287650189913128E-002
9,618424624204636E-002	-1,260868965673451E-002
9,712836891412735E-002	-1,234543991492650E-002
9,814038127660751E-002	-1,209613663403640E-002
9,913437068462372E-002	-1,185391783606593E-002
1,001220569014549E-001	-1,163609256809012E-002
1,011881157755852E-001	-1,139546966486688E-002
1,021492108702660E-001	-1,119431819372896E-002
1,031591072678566E-001	-1,098513952119834E-002
1,041488498449326E-001	-1,081175521708273E-002
1,051439121365547E-001	-1,060842539135221E-002
1,061813905835152E-001	-1,041363820720297E-002
1,071774959564209E-001	-1,022872158708718E-002
1,081396639347076E-001	-1,006359417548992E-002
1,091601550579071E-001	-9,876617352367861E-003
1,101562753319740E-001	-9,722884867618603E-003
1,111693456768990E-001	-9,564713851399342E-003
1,121325641870499E-001	-9,421736934808793E-003
1,131575480103493E-001	-9,261727151824467E-003
1,141502559185028E-001	-9,117173109572614E-003
1,151431798934937E-001	-8,994568209599367E-003
1,161382272839546E-001	-8,852613911263921E-003
1,171491816639900E-001	-8,712180169674649E-003
1,181410551071167E-001	-8,591977721346775E-003
1,191583797335625E-001	-8,458124554073007E-003
1,201279610395432E-001	-8,340596052835908E-003
1,211856007575989E-001	-8,218502571905050E-003
1,221159398555756E-001	-8,111721961289106E-003
1,231173500418663E-001	-7,991207911513601E-003
1,241177022457123E-001	-7,889203609972084E-003
1,251546591520309E-001	-7,770939495078066E-003
1,261343061923981E-001	-7,655643039808528E-003
1,271887719631195E-001	-7,541631533415333E-003
1,281275898218155E-001	-7,443190550710355E-003
1,292106956243515E-001	-7,330643293268851E-003
1,301314681768417E-001	-7,246712035665265E-003
1,311381757259369E-001	-7,140609961651910E-003
1,322085708379745E-001	-7,027075706272048E-003
1,331484466791153E-001	-6,957819054294920E-003
1,341859251260757E-001	-6,863120590696166E-003
1,351799070835114E-001	-6,772344317149959E-003
1,361452490091324E-001	-6,685491160293225E-003
1,371371150016785E-001	-6,603525208334113E-003
1,381384730339050E-001	-6,512697771746440E-003
1,391547918319702E-001	-6,425530897533172E-003
1,401625722646713E-001	-6,343536132319912E-003
1,411533802747726E-001	-6,261388049645711E-003
1,421653926372528E-001	-6,171084811479113E-003
1,431615054607391E-001	-6,100254011780770E-003
1,441289782524109E-001	-6,026104320478981E-003
1,451781243085861E-001	-5,955801158311902E-003
1,461360454559326E-001	-5,878215011968446E-003
1,471756398677826E-001	-5,795987867319934E-003
1,481675207614899E-001	-5,731828201112316E-003
1,491880267858505E-001	-5,658322216156503E-003
1,501258015632629E-001	-5,579114757651688E-003
1,511454880237579E-001	-5,493546895600256E-003
1,521742343902588E-001	-5,438077181931171E-003
1,531353145837784E-001	-5,373362566425212E-003
1,541017293930054E-001	-5,306777451860506E-003
1,551710367202759E-001	-5,237377089953255E-003
1,561437994241714E-001	-5,176553157227648E-003
1,571515947580338E-001	-5,101369252566211E-003
1,581476926803589E-001	-5,049202137134645E-003
1,591618359088898E-001	-4,971394286093160E-003
1,600449681282043E-001	-5,899812894242518E-003
1,611126661300659E-001	-5,771969142891284E-003
1,621003001928329E-001	-5,723002622122580E-003
1,630942821502686E-001	-5,615800775797694E-003
1,640956997871399E-001	-5,627268988290482E-003
1,651098281145096E-001	-5,532843630560058E-003
1,661154925823212E-001	-5,449017535226188E-003
1,671105325222015E-001	-5,440464618870794E-003
1,681299954652786E-001	-5,354129142372613E-003
1,691186875104904E-001	-5,318568701208573E-003
1,701317578554153E-001	-5,253761428510750E-003
1,711437851190567E-001	-5,188919104637826E-003
1,721356362104416E-001	-5,118594878094997E-003
1,731625050306320E-001	-5,058538557148759E-003
1,740949600934982E-001	-5,023433462372918E-003
1,751420050859451E-001	-4,953205455535431E-003
1,761124581098557E-001	-4,892171495420233E-003
1,771289259195328E-001	-4,844920632844918E-003
1,780942529439926E-001	-4,823639968011781E-003
1,791137009859085E-001	-4,775115291697833E-003
1,801278442144394E-001	-4,716380403676466E-003
1,811398565769196E-001	-4,666172069681680E-003
1,821030825376511E-001	-4,630104572542010E-003
1,831320822238922E-001	-4,592271992991379E-003
1,841854751110077E-001	-4,542305970691447E-003
1,851603537797928E-001	-4,453271135366817E-003
1,861288994550705E-001	-4,424468584034256E-003
1,871441006660461E-001	-4,361754831662096E-003
1,881730854511261E-001	-4,321067537961912E-003
1,891492009162903E-001	-4,323600203261557E-003
1,901324242353439E-001	-4,236344757274441E-003
1,911497563123703E-001	-4,188209361917574E-003
1,921649277210236E-001	-4,163168317069730E-003
1,931599825620651E-001	-4,103887219973471E-003
1,941497325897217E-001	-4,120068982243000E-003
1,951416134834290E-001	-4,027422925882644E-003
1,961440742015839E-001	-3,988710382910779E-003
1,971423029899597E-001	-3,943199213687125E-003
1,981532424688339E-001	-3,892960829327434E-003
1,991525292396545E-001	-3,870418858433269E-003
2,001369744539261E-001	-3,813157122099901E-003
2,011362910270691E-001	-3,774090915418889E-003
2,021398246288300E-001	-3,785420300718295E-003
2,031083405017853E-001	-3,714182368643845E-003
2,041649371385574E-001	-3,671604530242234E-003
2,051567882299423E-001	-3,633615567429135E-003
2,061253041028976E-001	-3,578180523181124E-003
2,071500718593597E-001	-3,562598837315967E-003
2,081313282251358E-001	-3,530190890564375E-003
2,091740965843201E-001	-3,498642852483934E-003
2,101543098688126E-001	-3,455649760002399E-003
2,111397981643677E-001	-3,427860992295400E-003
2,121666818857193E-001	-3,369729845286211E-003
2,131723314523697E-001	-3,356112263723982E-003
2,141340821981430E-001	-3,296930707187090E-003
2,151337862014771E-001	-3,283256523840684E-003
2,161532193422318E-001	-3,259484081502943E-003
2,171588838100433E-001	-3,197000829224175E-003
2,181210517883301E-001	-3,177874113903995E-003
2,191256284713745E-001	-3,113441366323234E-003
2,201376706361771E-001	-3,116395064052030E-003
2,211496680974960E-001	-3,088540165380748E-003
2,221723049879074E-001	-3,038697755430156E-003
2,231758534908295E-001	-3,029526737599125E-003
2,241783142089844E-001	-2,964539115178980E-003
2,251468449831009E-001	-2,950616182876616E-003
2,261525094509125E-001	-2,933474233566189E-003
2,271751165390015E-001	-2,866254823505297E-003
2,281585186719894E-001	-2,884044633831677E-003
2,291090041399002E-001	-2,859311130133706E-003
2,301623821258545E-001	-2,813505785001363E-003
2,311754524707794E-001	-2,804682999979324E-003
2,321800738573074E-001	-2,742776727509638E-003
2,331369519233704E-001	-2,716772615364592E-003
2,341574579477310E-001	-2,716273692424769E-003
2,351567149162292E-001	-2,652154803075964E-003
2,361326813697815E-001	-2,628422337555163E-003
2,371712327003479E-001	-2,598369218006637E-003
2,381927818059921E-001	-2,585273176112783E-003
2,391454130411148E-001	-2,559771990103118E-003
2,401216179132462E-001	-2,542517574810360E-003
2,411832213401794E-001	-2,504358043954364E-003
2,421634495258331E-001	-2,472859809803802E-003
2,431478649377823E-001	-2,408656478891678E-003
2,441588491201401E-001	-2,405989851859740E-003
2,451676875352860E-001	-2,366570365956916E-003
2,461329996585846E-001	-2,362405338360636E-003
2,471683621406555E-001	-2,323446570086650E-003
2,481697946786880E-001	-2,322605778606390E-003
2,491818219423294E-001	-2,287250683923275E-003
2,501800358295441E-001	-2,208888239082447E-003
2,511379718780518E-001	-2,232457451219964E-003
2,521786093711853E-001	-2,188308135752985E-003
2,531496286392212E-001	-2,172456551533506E-003
2,541824877262115E-001	-2,150823809453306E-003
2,551383078098297E-001	-2,123909039063725E-003
2,561651766300201E-001	-2,084745857759689E-003
2,571665644645691E-001	-2,047846625034246E-003
2,581520676612854E-001	-2,024754183531886E-003
2,591291069984436E-001	-2,018669230471844E-003
2,601941525936127E-001	-1,979294426975413E-003
2,611605823040009E-001	-1,967594018246910E-003
2,621747255325317E-001	-1,933965001801645E-003
2,631655037403107E-001	-1,902905362937028E-003
2,641573548316956E-001	-1,888816196957896E-003
2,651224136352539E-001	-1,876515377359497E-003
2,661654949188232E-001	-1,861302471667860E-003
2,671605646610260E-001	-1,813597123858424E-003
2,681609094142914E-001	-1,779762933422770E-003
2,691655158996582E-001	-1,768044766802812E-003
2,701361477375031E-001	-1,751744817506642E-003
2,711566686630249E-001	-1,733040008034266E-003
2,720753252506256E-001	-1,688742679225049E-003
2,731308341026306E-001	-1,658989798042534E-003
2,741672694683075E-001	-1,662230398822850E-003
2,751389443874359E-001	-1,628525243591146E-003
2,761244475841522E-001	-1,628256915679673E-003
2,771227061748505E-001	-1,612100665537249E-003
2,781315743923187E-001	-1,572052675966155E-003
2,791382074356079E-001	-1,543823699288398E-003
2,801269292831421E-001	-1,519940453030164E-003
2,811442315578461E-001	-1,491771880532003E-003
2,821902334690094E-001	-1,488004262007393E-003
2,831757068634033E-001	-1,451497823022056E-003
2,841527163982391E-001	-1,455966669441498E-003
2,851774990558624E-001	-1,386071744703770E-003
2,861555516719818E-001	-1,384389600143698E-003
2,871749997138977E-001	-1,372398767526893E-003
2,881445884704590E-001	-1,349963463096323E-003
2,891597747802734E-001	-1,312752601268154E-003
2,901538014411926E-001	-1,305378825726206E-003
2,911491692066193E-001	-1,295379148127935E-003
2,921576797962189E-001	-1,237375454469093E-003
2,931612133979797E-001	-1,257092083589519E-003
2,941392660140991E-001	-1,226363830444871E-003
2,951322197914124E-001	-1,175454151731200E-003
2,961527109146118E-001	-1,177477785660451E-003
2,971456348896027E-001	-1,145249685028291E-003
2,981268763542175E-001	-1,154886873993951E-003
2,991961836814880E-001	-1,098920933601343E-003
3,001880645751953E-001	-1,071030424614729E-003
3,011470735073090E-001	-1,071498863126602E-003
3,021283149719238E-001	-1,053612650960066E-003
3,031233549118042E-001	-1,056687537785444E-003
3,041608631610870E-001	-1,029719360094990E-003
3,051643669605255E-001	-9,933771879354902E-004
3,061604499816895E-001	-9,796176713875136E-004
3,071205317974091E-001	-9,222885655152239E-004
3,081198036670685E-001	-9,175682789169172E-004
3,091169595718384E-001	-9,116385826670494E-004
3,101417422294617E-001	-8,877849624279351E-004
3,111431300640106E-001	-8,797955508808367E-004
3,121254444122314E-001	-8,258071344076912E-004
3,130589723587036E-001	-8,311091394040196E-004
3,141261339187622E-001	-8,025816829772062E-004
3,151413500308990E-001	-7,771149025715806E-004
3,161319196224213E-001	-7,747118655626120E-004
3,171272277832031E-001	-7,574700894327916E-004
3,181339204311371E-001	-7,199155216644181E-004
3,191364109516144E-001	-7,094198393127235E-004
3,200869262218475E-001	-6,804454568880972E-004
3,211456239223480E-001	-6,402434615189268E-004
3,221088349819183E-001	-6,404466703790202E-004
3,231155276298523E-001	-5,973430040491102E-004
3,241519629955292E-001	-6,142122819157263E-004
3,251650333404541E-001	-5,815629288573054E-004
3,261420428752899E-001	-5,318214035338322E-004
3,271010518074036E-001	-5,537117830506704E-004
3,281056284904480E-001	-5,239985789722975E-004
3,290955424308777E-001	-4,971672941193623E-004
3,301264643669128E-001	-4,763027940665448E-004
3,311109244823456E-001	-4,506901733384245E-004
3,321101963520050E-001	-4,376717504271837E-004
3,331084251403809E-001	-4,272881804306815E-004
3,341172933578491E-001	-3,512993097318229E-004
3,351303935050964E-001	-3,662952045021982E-004
3,360787332057953E-001	-3,142535770386829E-004
3,371406197547913E-001	-3,046383777801150E-004
3,381271660327911E-001	-2,975420200944472E-004
3,391296565532684E-001	-2,681380055677253E-004
3,401098847389221E-001	-2,487334511694249E-004
3,411123454570770E-001	-2,481154305956088E-004
3,420886993408203E-001	-2,165306132955415E-004
3,431214988231659E-001	-1,917496802289077E-004
3,441144526004791E-001	-1,714984371083408E-004
3,451412916183472E-001	-1,327636001919590E-004
3,461437821388245E-001	-1,111334905081424E-004
3,471133708953857E-001	-1,169233723457293E-004
3,481307029724121E-001	-8,730198820107503E-005
3,491331338882446E-001	-3,192914985395096E-005
3,501175940036774E-001	3,457933278915197E-007
3,511136770248413E-001	-7,551075254195873E-006
3,520907163619995E-001	2,271967846802128E-005
3,531005978584290E-001	5,015575985737404E-005
3,541132509708405E-001	5,486257740400604E-005
3,550991714000702E-001	9,597055069298028E-005
3,561059236526489E-001	1,027868210577811E-004
3,570797145366669E-001	1,201286034164366E-004
3,580981194972992E-001	1,733219808443720E-004
3,591069281101227E-001	2,011738413675463E-004
3,601009547710419E-001	2,240800026045834E-004
3,610959947109222E-001	2,390170627059691E-004
3,621228933334351E-001	2,433013239843554E-004
3,631232678890228E-001	2,861920274530817E-004
3,641522228717804E-001	3,169111134799378E-004
3,651112318038940E-001	3,672248374181081E-004
3,660691380500793E-001	3,725827694970856E-004
3,671117424964905E-001	3,675350037825910E-004
3,680730164051056E-001	4,117599507863479E-004
3,690892755985260E-001	4,461783285915517E-004
3,700928092002869E-001	4,727892022640618E-004
3,711026906967163E-001	4,911065210125637E-004
3,721157610416412E-001	5,414625718122281E-004
3,731405735015869E-001	5,519671980062819E-004
3,741069436073303E-001	5,878303009154359E-004
3,750935196876526E-001	6,148434952819772E-004
3,761065900325775E-001	6,641392858696741E-004
3,771133422851563E-001	6,919735126328617E-004
3,780945837497711E-001	7,210995178521702E-004
3,791161179542542E-001	7,271273827794758E-004
3,800967931747437E-001	7,609933687888534E-004
3,810850381851196E-001	7,722524026487470E-004
3,820853531360626E-001	8,369710042080356E-004
3,831345140933990E-001	8,485217170216084E-004
3,841114938259125E-001	8,599834616940527E-004
3,851150572299957E-001	9,165081182449727E-004
3,861196935176849E-001	9,230454711614024E-004
3,871433436870575E-001	9,697253998207159E-004
3,881097435951233E-001	9,968925551880232E-004
3,891344666481018E-001	1,027797377026721E-003
3,901210427284241E-001	1,058072661984948E-003
3,911288380622864E-001	1,124794324528677E-003
3,921022415161133E-001	1,110175291878606E-003
3,931114673614502E-001	1,155807023088956E-003
3,941160440444946E-001	1,156521940032270E-003
3,951291143894196E-001	1,212173592920700E-003
3,961040377616882E-001	1,225073265603139E-003
3,971288204193115E-001	1,267333516324827E-003
3,981588780879974E-001	1,323235699357998E-003
3,991178274154663E-001	1,315413126279478E-003
4,000969827175140E-001	1,374746876907154E-003
4,011079668998718E-001	1,411586491095865E-003
4,021549522876740E-001	1,429654389216006E-003
4,031107723712921E-001	1,484889828258069E-003
4,041196107864380E-001	1,490343655696835E-003
4,051059782505035E-001	1,527210540997470E-003
4,061203002929688E-001	1,609179955712352E-003
4,071429371833801E-001	1,577300892198697E-003
4,081453680992126E-001	1,643837984304721E-003
4,091361761093140E-001	1,656256084657186E-003
4,101418852806091E-001	1,649887290716038E-003
4,111655652523041E-001	1,725357570288154E-003
4,121902883052826E-001	1,752540197632858E-003
4,131758511066437E-001	1,797074693205103E-003
4,141814708709717E-001	1,841089097585515E-003
4,151924252510071E-001	1,849451795528708E-003
4,161705076694489E-001	1,901413915688634E-003
4,171963036060333E-001	1,948695550525539E-003
4,181795418262482E-001	1,959124427905676E-003
4,191736876964569E-001	2,025971948381673E-003
4,201920628547668E-001	2,046208754707179E-003
4,211733341217041E-001	2,084151363499731E-003
4,222044050693512E-001	2,138554639439839E-003
4,231644570827484E-001	2,163839969136480E-003
4,241913557052612E-001	2,205585284993948E-003
4,252043962478638E-001	2,247542439499428E-003
4,261570870876312E-001	2,257710943173945E-003
4,272114932537079E-001	2,316945225290490E-003
4,281725883483887E-001	2,343851454365796E-003
4,291676580905914E-001	2,386784946706716E-003
4,301276803016663E-001	2,429339638307340E-003
4,311651885509491E-001	2,462551027575005E-003
4,321580529212952E-001	2,499605606191557E-003
4,331828355789185E-001	2,551569560453746E-003
4,341948926448822E-001	2,575773315817282E-003
4,351548850536346E-001	2,599137607274099E-003
4,361870884895325E-001	2,650540595697456E-003
4,371768236160278E-001	2,695030556156072E-003
4,381846189498901E-001	2,733346179042299E-003
4,391849637031555E-001	2,766652218657590E-003
4,401768445968628E-001	2,822512068634995E-003
4,411634206771851E-001	2,857577275703766E-003
4,421987533569336E-001	2,894277307261661E-003
4,431975483894348E-001	2,945621700148220E-003
4,441765248775482E-001	2,963075035113699E-003
4,452210068702698E-001	3,017464207999155E-003
4,461800158023834E-001	3,052530898356859E-003
4,471888542175293E-001	3,104967186454477E-003
4,481838941574097E-001	3,154693057672422E-003
4,492171108722687E-001	3,184935990076873E-003
4,501718282699585E-001	3,232169900587892E-003
4,512135386466980E-001	3,284310551761233E-003
4,521959125995636E-001	3,330787779872099E-003
4,531856179237366E-001	3,365075148613290E-003
4,542039930820465E-001	3,421849503787440E-003
4,551884829998016E-001	3,499103635183951E-003
4,562022984027863E-001	3,512394913278490E-003
4,571838676929474E-001	3,594440139550029E-003
4,581841826438904E-001	3,611810431640688E-003
4,592004716396332E-001	3,702285778014500E-003
4,601944386959076E-001	3,760809276764837E-003
4,612118005752563E-001	3,824149695025224E-003
4,622152745723724E-001	3,903407249075695E-003
4,631785452365875E-001	3,966052120534573E-003
4,641619026660919E-001	4,063247737861216E-003
4,651686549186707E-001	4,179645466092660E-003
4,661954939365387E-001	4,262629986551657E-003
4,672043621540070E-001	4,399989174545337E-003
4,682153165340424E-001	4,510273714728024E-003
4,692072868347168E-001	4,634448007958814E-003
4,701597392559052E-001	4,807125833035983E-003
4,712089598178864E-001	4,943870625540761E-003
4,721806347370148E-001	5,155853018812199E-003
4,731555581092834E-001	5,360205144008486E-003
4,742121100425720E-001	5,564979982048662E-003
4,751912355422974E-001	5,817470990111845E-003
4,762191772460938E-001	6,048021868459708E-003
4,772152900695801E-001	6,306808273193965E-003
4,782304763793945E-001	6,618992212073210E-003
4,792435765266418E-001	6,879947154137036E-003
4,802142679691315E-001	7,210405227264099E-003
4,812103211879730E-001	7,469495723040901E-003
4,822661578655243E-001	7,807779803713708E-003
4,832492172718048E-001	8,123067173251002E-003
4,842336773872375E-001	8,451819510934072E-003
4,852436184883118E-001	8,772299854840349E-003
4,863022565841675E-001	9,155380309997782E-003
4,873821735382080E-001	9,749598704915180E-003
4,884048104286194E-001	1,004109832664371E-002
4,893956184387207E-001	1,035521721217648E-002
4,904129207134247E-001	1,068187382222940E-002
4,913994967937469E-001	1,100597364625780E-002
4,923743605613709E-001	1,139447984623282E-002
4,933705031871796E-001	1,176429025678641E-002
4,943376779556274E-001	1,217849064035936E-002
4,954104721546173E-001	1,264878343938594E-002
4,963386356830597E-001	1,312810988080970E-002
4,973846375942230E-001	1,365588624212496E-002
4,983817934989929E-001	1,421202492439277E-002
4,993970394134521E-001	1,479266873888709E-002
5,003793239593506E-001	1,541009107250887E-002
5,013796687126160E-001	1,605514284617179E-002
5,023301839828491E-001	1,673619638570921E-002
5,034121870994568E-001	1,746017050434667E-002
5,043764710426331E-001	1,818227923560733E-002
5,053630471229553E-001	1,896477334321192E-002
5,064026713371277E-001	1,971883852472486E-002
5,074028372764587E-001	2,054356941289984E-002
5,083874464035034E-001	2,145182291867281E-002
5,093581080436707E-001	2,236263291467328E-002
5,103986859321594E-001	2,330548779288177E-002
5,113725662231445E-001	2,434147765916456E-002
5,123676657676697E-001	2,533517860967982E-002
5,133488774299622E-001	2,640244745081323E-002
5,143619775772095E-001	2,755752115382631E-002
5,153782367706299E-001	2,875929525203362E-002
5,163435935974121E-001	3,005951052492528E-002
5,173650979995728E-001	3,140399477137312E-002
5,183930397033691E-001	3,280928645223863E-002
5,193328857421875E-001	3,420991862040712E-002
5,203663110733032E-001	3,574307290632178E-002
5,213803648948669E-001	3,737351220748397E-002
5,223700404167175E-001	3,903425446407371E-002
5,233809947967529E-001	4,073154945544215E-002
5,243824720382690E-001	4,246216958051841E-002
5,253541469573975E-001	4,417648351072301E-002
5,263630151748657E-001	4,580355771155192E-002
5,273803472518921E-001	4,743110010444759E-002
5,283467173576355E-001	4,891870290388356E-002
5,293555259704590E-001	5,025736068358488E-002
5,303845405578613E-001	5,145567795156136E-002
5,313552021980286E-001	5,243992775862355E-002
5,323735475540161E-001	5,314935111153496E-002
5,333368182182312E-001	5,377820631607444E-002
5,343477129936218E-001	5,410005748926616E-002
5,353566408157349E-001	5,424481404516568E-002
5,363570451736450E-001	5,413791434121340E-002
5,373583436012268E-001	5,389671452193540E-002
5,383735299110413E-001	5,350025415118553E-002
5,393601655960083E-001	5,291531697525942E-002
5,403658151626587E-001	5,226608427439938E-002
5,414118170738220E-001	5,156035951809657E-002
5,423929691314697E-001	5,079200179178828E-002
5,433551669120789E-001	5,008829525796499E-002
5,443852543830872E-001	4,932928073078484E-002
5,453949570655823E-001	4,862453136111899E-002
5,463584065437317E-001	4,797579379342604E-002
5,473480820655823E-001	4,736626295049717E-002
5,483781695365906E-001	4,682679237325860E-002
5,493806600570679E-001	4,638012836511982E-002
5,503745675086975E-001	4,598053637733612E-002
5,513409972190857E-001	4,561886513952057E-002
5,523636341094971E-001	4,535667788471764E-002
5,533925890922546E-001	4,511180479695082E-002
5,543877482414246E-001	4,489407808965473E-002
5,554113984107971E-001	4,472920213389897E-002
5,563883781433105E-001	4,461046887979814E-002
5,573431253433228E-001	4,456412865381149E-002
5,583827495574951E-001	4,453606376934283E-002
5,593597292900085E-001	4,460781116472562E-002
5,603877305984497E-001	4,468553543514242E-002
5,613795518875122E-001	4,476636090255692E-002
5,623852014541626E-001	4,487888148986847E-002
5,633876323699951E-001	4,507186152663978E-002
5,643689632415771E-001	4,521945073182712E-002
5,653861761093140E-001	4,543023525400375E-002
5,663441419601440E-001	4,562459106566574E-002
5,673456192016602E-001	4,592411457893597E-002
5,683820247650146E-001	4,615559045234891E-002
5,693791508674622E-001	4,645036096693084E-002
5,704017877578735E-001	4,675397250453914E-002
5,713307857513428E-001	4,707150229173074E-002
5,723600387573242E-001	4,743581842615263E-002
5,733901262283325E-001	4,781896425880960E-002
5,743459463119507E-001	4,815225124590361E-002
5,753558278083801E-001	4,861920903982730E-002
5,763922333717346E-001	4,902514806038401E-002
5,773660540580750E-001	4,947912732779128E-002
5,783674716949463E-001	4,995398027209919E-002
5,794092416763306E-001	5,043986045635078E-002
5,803416371345520E-001	5,100312227723269E-002
5,813664197921753E-001	5,152381024515573E-002
5,823540687561035E-001	5,212173791435415E-002
5,833190679550171E-001	5,269210161165327E-002
5,843653678894043E-001	5,334243743310829E-002
5,853306651115417E-001	5,399319645790324E-002
5,863724350929260E-001	5,467504456527372E-002
5,873600244522095E-001	5,537440478928435E-002
5,883593559265137E-001	5,613625630981334E-002
5,893533229827881E-001	5,692361979776994E-002
5,903345942497253E-001	5,774105522969553E-002
5,913805961608887E-001	5,863642177593087E-002
5,923787951469421E-001	5,956244337173933E-002
5,933748483657837E-001	6,050403204708532E-002
5,943444967269897E-001	6,152295591014001E-002
5,953723788261414E-001	6,256637830855294E-002
5,963588953018188E-001	6,368578453611096E-002
5,973539948463440E-001	6,480188068222092E-002
5,983681678771973E-001	6,603007711620057E-002
5,994035005569458E-001	6,731292352612539E-002
6,003667712211609E-001	6,865505843376857E-002
6,013681888580322E-001	7,007197918562524E-002
6,023738384246826E-001	7,152134293738910E-002
6,033645868301392E-001	7,305154947367619E-002
6,043946743011475E-001	7,466660388069590E-002
6,053314208984375E-001	7,636447847016159E-002
6,063709855079651E-001	7,816303778881206E-002
6,074052453041077E-001	8,003893546610158E-002
6,083726882934570E-001	8,194684335706404E-002
6,093863844871521E-001	8,399985764253798E-002
6,103808283805847E-001	8,613398771304348E-002
6,113154888153076E-001	8,839124878298277E-002
6,123741269111633E-001	9,077267095661989E-002
6,133585572242737E-001	9,328210717616203E-002
6,143684983253479E-001	9,592226210637378E-002
6,153635382652283E-001	9,871366991589681E-002
6,163427233695984E-001	1,016006064368939E-001
6,174095869064331E-001	1,047542070970935E-001
6,184749007225037E-001	1,081537068842608E-001
6,194912195205688E-001	1,114713716291128E-001
6,205095648765564E-001	1,150426153915083E-001
6,214342713356018E-001	1,186303174578864E-001
6,224545836448669E-001	1,224575979888658E-001
6,234459280967712E-001	1,265298029082640E-001
6,244611740112305E-001	1,307661874935695E-001
6,254763007164001E-001	1,352002439395341E-001
6,264914870262146E-001	1,398943777316486E-001
6,274760365486145E-001	1,447384534551519E-001
6,284381151199341E-001	1,498836696701225E-001
6,294459104537964E-001	1,552306567054758E-001
6,304611563682556E-001	1,608811805632957E-001
6,314507722854614E-001	1,667960238961874E-001
6,324883699417114E-001	1,729615360209109E-001
6,334494352340698E-001	1,794635759478607E-001
6,344878673553467E-001	1,861394668127467E-001
6,355011463165283E-001	1,931833415133815E-001
6,364345550537109E-001	2,006462482955140E-001
6,374062299728394E-001	2,084232856099258E-001
6,384639143943787E-001	2,165435957183837E-001
6,394802331924438E-001	2,251229563922266E-001
6,404667496681213E-001	2,340578600899426E-001
6,414787769317627E-001	2,434520221140053E-001
6,424928903579712E-001	2,532718552175131E-001
6,434953212738037E-001	2,634475613752052E-001
6,444787979125977E-001	2,741764528115134E-001
6,454896926879883E-001	2,853794788113904E-001
6,465038657188416E-001	2,969869368618814E-001
6,474556922912598E-001	3,089972933376570E-001
6,484695076942444E-001	3,217220537474290E-001
6,494805216789246E-001	3,350374078749763E-001
6,504468917846680E-001	3,489578757604033E-001
6,514652967453003E-001	3,634083624021103E-001
6,524550914764404E-001	3,786057726439953E-001
6,534925103187561E-001	3,943680583324123E-001
6,544514894485474E-001	4,108165846905267E-001
6,554847359657288E-001	4,280213974458489E-001
6,565030813217163E-001	4,457842193104664E-001
6,575215458869934E-001	4,643391823045500E-001
6,584773063659668E-001	4,837964897270002E-001
6,594841480255127E-001	5,038683573233822E-001
6,604508757591248E-001	5,245104615389540E-001
6,614708900451660E-001	5,462880857466237E-001
6,624416112899780E-001	5,688518408449390E-001
6,634631752967834E-001	5,925267898306568E-001
6,644496321678162E-001	6,167979759930748E-001
6,654829382896423E-001	6,421500445468201E-001
6,664397716522217E-001	6,681685040656351E-001
6,674868464469910E-001	6,952636433625887E-001
6,684776544570923E-001	7,235976169456002E-001
6,694493293762207E-001	7,528035006150100E-001
6,704519391059875E-001	7,828685971496459E-001
6,714691519737244E-001	8,143264520195359E-001
6,724410653114319E-001	8,463277922083803E-001
6,734613776206970E-001	8,793970331907253E-001
6,744903922080994E-001	9,139491520450367E-001
6,754344701766968E-001	9,494187579386768E-001
6,764199733734131E-001	9,861884140694588E-001
6,774712204933167E-001	1,024063107031745E+000
6,784451007843018E-001	1,062935928757089E+000
6,795256733894348E-001	1,106461423278162E+000
6,805348992347717E-001	1,150277335188282E+000
6,815533041954041E-001	1,192793687209996E+000
6,825992465019226E-001	1,236762158978149E+000
6,835603713989258E-001	1,281637522470113E+000
6,845394968986511E-001	1,327823639262363E+000
6,855400204658508E-001	1,374744284500769E+000
6,865741610527039E-001	1,422847938400746E+000
6,875426769256592E-001	1,472877536205548E+000
6,885282397270203E-001	1,523828674386554E+000
6,895381212234497E-001	1,575985759952843E+000
6,905670762062073E-001	1,629687111174313E+000
6,915431022644043E-001	1,684204885039197E+000
6,925995945930481E-001	1,740611766302392E+000
6,936084628105164E-001	1,797935298443377E+000
6,945642232894897E-001	1,856031990088439E+000
6,955677270889282E-001	1,915635065359325E+000
6,965925097465515E-001	1,976200752010964E+000
6,975803375244141E-001	2,037906642472580E+000
6,985548734664917E-001	2,100172200538751E+000
6,995543241500854E-001	2,164061268677525E+000
7,005398273468018E-001	2,229416628543499E+000
7,015921473503113E-001	2,296031296692469E+000
7,025723457336426E-001	2,363427879436623E+000
7,035737037658691E-001	2,432473847317308E+000
7,045337557792664E-001	2,502202685271939E+000
7,055553197860718E-001	2,572974993714261E+000
7,065684199333191E-001	2,645391779489266E+000
7,075932621955872E-001	2,717996104774571E+000
7,085723280906677E-001	2,792330927944089E+000
7,095832824707031E-001	2,867606538426024E+000
7,105503678321838E-001	2,943556671894783E+000
7,115776538848877E-001	3,019921014604922E+000
7,125705480575562E-001	3,098210712037378E+000
7,135761976242065E-001	3,177510877754408E+000
7,146158218383789E-001	3,258266608900215E+000
7,155737280845642E-001	3,339104011519694E+000
7,165613174438477E-001	3,420976134621101E+000
7,175362706184387E-001	3,503903956268644E+000
7,185726761817932E-001	3,587722561256690E+000
7,195199728012085E-001	3,673016197928760E+000
7,205626964569092E-001	3,758713386902201E+000
7,215832471847534E-001	3,845786933388005E+000
7,225687503814697E-001	3,933963944514588E+000
7,235595583915710E-001	4,021949686381021E+000
7,245174646377563E-001	4,110158561747916E+000
7,255390286445618E-001	4,200405253743654E+000
7,265362739562988E-001	4,291477339743494E+000
7,275365591049194E-001	4,384035720441332E+000
7,285220623016357E-001	4,476310320485759E+000
7,295893430709839E-001	4,569498878589002E+000
7,305556535720825E-001	4,663658495831939E+000
7,315390110015869E-001	4,758229796375559E+000
7,325606346130371E-001	4,854347810554678E+000
7,335588335990906E-001	4,950656374194178E+000
7,345719337463379E-001	5,047571184176991E+000
7,355541586875916E-001	5,145578522159141E+000
7,365651726722717E-001	5,242677813733479E+000
7,375867962837219E-001	5,341009967113564E+000
7,385563850402832E-001	5,440871378867271E+000
7,395768165588379E-001	5,541077492289787E+000
7,405485510826111E-001	5,642322417728735E+000
7,415584325790405E-001	5,744470924037628E+000
7,425736188888550E-001	5,845582397785570E+000
7,435814142227173E-001	5,949871264685299E+000
7,445563673973084E-001	6,052731946414838E+000
7,455662488937378E-001	6,156701089573560E+000
7,466121912002563E-001	6,261568065910110E+000
7,475902438163757E-001	6,365287073818223E+000
7,485754489898682E-001	6,470917168196184E+000
7,495569586753845E-001	6,575311561551992E+000
7,505563497543335E-001	6,679685145616522E+000
7,515747547149658E-001	6,785207493370066E+000
7,525305747985840E-001	6,891522091532465E+000
7,535637021064758E-001	6,998460409187153E+000
7,545832395553589E-001	7,106134598825520E+000
7,555612921714783E-001	7,214043805050508E+000
7,565892338752747E-001	7,322271054902046E+000
7,575662732124329E-001	7,431268479210445E+000
7,585867643356323E-001	7,540620604745385E+000
7,596040964126587E-001	7,652748816475537E+000
7,605704069137573E-001	7,761731549928520E+000
7,615528106689453E-001	7,873564251753891E+000
7,625584006309509E-001	7,982955766305338E+000
7,635365128517151E-001	8,093272431569844E+000
7,645612955093384E-001	8,205141038919017E+000
7,655923366546631E-001	8,321345083094513E+000
7,665757536888123E-001	8,438472446941176E+000
7,675570249557495E-001	8,549620305870093E+000
7,685616016387939E-001	8,662628255058038E+000
7,695471048355103E-001	8,774483733098783E+000
7,705729007720947E-001	8,888210086122371E+000
7,715467214584351E-001	9,001009676056356E+000
7,725406885147095E-001	9,116449090426215E+000
7,735719084739685E-001	9,246287046578999E+000
7,745687961578369E-001	9,366417713201685E+000
7,755683660507202E-001	9,482460250389551E+000
7,765697240829468E-001	9,608456540878137E+000
7,775436043739319E-001	9,728275255821721E+000
7,785364985466003E-001	9,842956256771828E+000
7,795559167861938E-001	9,960337458621893E+000
7,805700302124023E-001	1,007761955801867E+001
7,815300822257996E-001	1,019355481011529E+001
7,825993895530701E-001	1,031561630430406E+001
7,835572957992554E-001	1,043453995244845E+001
7,845544815063477E-001	1,054780587770233E+001
7,855591177940369E-001	1,066800475532774E+001
7,865579724311829E-001	1,078459525999884E+001
7,875565290451050E-001	1,089908875470348E+001
7,886175513267517E-001	1,103469136369466E+001
7,896506190299988E-001	1,118970554242600E+001
7,906170487403870E-001	1,131596855302248E+001
7,916395664215088E-001	1,144081649765411E+001
7,926208972930908E-001	1,155765425476356E+001
7,936266064643860E-001	1,167768499829607E+001
7,947054505348206E-001	1,179829363264736E+001
7,956643700599670E-001	1,191390842158773E+001
7,966712117195129E-001	1,203444668866879E+001
7,976651191711426E-001	1,216318659643196E+001
7,986686229705811E-001	1,229375982027739E+001
7,996552586555481E-001	1,241586053470968E+001
8,006799817085266E-001	1,253352895541255E+001
8,016505837440491E-001	1,265748132451050E+001
8,026806116104126E-001	1,277349262807913E+001
8,037160038948059E-001	1,288989831963363E+001
8,046420812606812E-001	1,301370408556627E+001
8,056721687316895E-001	1,313385985065206E+001
8,067022562026978E-001	1,325290925027019E+001
8,076632022857666E-001	1,337685114767001E+001
8,086944818496704E-001	1,353838982319886E+001
8,096746206283569E-001	1,366699754232184E+001
8,106760978698730E-001	1,381275010392784E+001
8,116308450698853E-001	1,399594169368547E+001
8,126919269561768E-001	1,413001242694656E+001
8,136557936668396E-001	1,425284532165304E+001
8,146710991859436E-001	1,437050001367157E+001
8,156343698501587E-001	1,448679674604313E+001
8,166421055793762E-001	1,460482451312942E+001
8,176382184028625E-001	1,472651544720145E+001
8,186778426170349E-001	1,485123846279521E+001
8,197088837623596E-001	1,497399935916974E+001
8,206763863563538E-001	1,508719776939103E+001
8,217085599899292E-001	1,521345002716092E+001
8,227089047431946E-001	1,532667756377975E+001
8,236986398696899E-001	1,545526949307822E+001
8,247191905975342E-001	1,560939950115821E+001
8,256609439849854E-001	1,596840902930884E+001
8,266997337341309E-001	1,613013635214215E+001
8,276873230934143E-001	1,622094153276650E+001
8,286982774734497E-001	1,635618934258306E+001
8,297240734100342E-001	1,646603738572318E+001
8,306777477264404E-001	1,660781042146033E+001
8,317300677299500E-001	1,675387780533897E+001
8,327208757400513E-001	1,686096232859197E+001
8,337106108665466E-001	1,699126951021407E+001
8,347046971321106E-001	1,715873883451732E+001
8,357028961181641E-001	1,728230517616078E+001
8,367138504981995E-001	1,740148956610770E+001
8,377110362052917E-001	1,750652345021567E+001
8,386754989624023E-001	1,761148322338761E+001
8,397223949432373E-001	1,772887017870161E+001
8,406951427459717E-001	1,787610494455242E+001
8,417092561721802E-001	1,803816170257238E+001
8,427138328552246E-001	1,815896059785572E+001
8,436749577522278E-001	1,828478248319391E+001
8,447008132934570E-001	1,843362831582823E+001
8,456883430480957E-001	1,863243689531642E+001
8,466590642929077E-001	1,878567134658222E+001
8,477081060409546E-001	1,888243830595974E+001
8,487128019332886E-001	1,899133840764196E+001
8,496918678283691E-001	1,912549804438270E+001
8,507462739944458E-001	1,924132139531395E+001
8,516824245452881E-001	1,935747139505692E+001
8,527110815048218E-001	1,948146951928425E+001
8,536933064460754E-001	1,958740038544682E+001
8,546820282936096E-001	1,971065705149623E+001
8,557428121566772E-001	1,987465313624372E+001
8,567453622817993E-001	1,999370510764663E+001
8,577329516410828E-001	2,014284285477231E+001
8,587227463722229E-001	2,025214790405875E+001
8,597039580345154E-001	2,037772321660498E+001
8,606894016265869E-001	2,049400389829736E+001
8,616992831230164E-001	2,060413041001277E+001
8,627059459686279E-001	2,072878084066514E+001
8,637443184852600E-001	2,085478265687556E+001
8,647013902664185E-001	2,096402183992797E+001
8,656986355781555E-001	2,117598355465198E+001
8,667021989822388E-001	2,134823214696924E+001
8,677024841308594E-001	2,153401150346619E+001
8,687102198600769E-001	2,177786701039128E+001
8,697222471237183E-001	2,195830130942011E+001
8,707025051116943E-001	2,203413589416996E+001
8,717325329780579E-001	2,221894088867305E+001
8,727127313613892E-001	2,234368242793073E+001
8,736908435821533E-001	2,241806131898682E+001
8,746932744979858E-001	2,253228487273748E+001
8,756746053695679E-001	2,266562210432244E+001
8,767226934432983E-001	2,279624445151308E+001
8,776636123657227E-001	2,290461812092326E+001
8,786713480949402E-001	2,300737451223023E+001
8,797034621238709E-001	2,312564137233363E+001
8,807071447372437E-001	2,326756566803454E+001
8,816713094711304E-001	2,343866316112528E+001
8,827534317970276E-001	2,394662688162312E+001
8,837271332740784E-001	2,404384839237412E+001
8,846967816352844E-001	2,419765397886033E+001
8,857205510139465E-001	2,428898553850968E+001
8,867123126983643E-001	2,439393137533909E+001
8,876947164535522E-001	2,451657604103463E+001
8,886971473693848E-001	2,460377678133186E+001
8,897011280059814E-001	2,482025063253604E+001
8,906840682029724E-001	2,492435177234825E+001
8,916567564010620E-001	2,501523835805011E+001
8,927102088928223E-001	2,512495826134071E+001
8,937190175056458E-001	2,523911177787659E+001
8,947659730911255E-001	2,535468571688864E+001
8,957049250602722E-001	2,554062862596281E+001
8,967095017433167E-001	2,573383802432306E+001
8,977214694023132E-001	2,585120636265299E+001
8,986858129501343E-001	2,594047846707633E+001
8,991783261299133E-001	2,598578920169746E+001
8,994074463844299E-001	2,599796570671930E+001