File: fig_si_ecsa/ZrO2/10.txt
C:\EC-lab data\Neethu\2024_10_01_Ni90Fe10_ZrO2\CV_ECSA\CV_ECSA_01_CV_C01.mpr
Ewe/V	<I>/mA
6,259723752737045E-002	-2,480905316770077E-002
6,594727188348770E-002	-7,576453727890699E-004
6,893772631883621E-002	-2,870090749545993E-004
7,193347066640854E-002	-5,675475453817516E-005
7,493346184492111E-002	1,093747887016099E-004
7,791861146688461E-002	2,350835353581715E-004
8,094619214534760E-002	3,435478200336313E-004
8,392815291881561E-002	4,197603382196900E-004
8,694192767143250E-002	4,840031554018435E-004
8,996314555406570E-002	5,537530521156394E-004
9,296419471502304E-002	6,159014499105449E-004
9,601405262947083E-002	6,697276349448790E-004
9,895887970924377E-002	7,204676624168217E-004
1,019726619124413E-001	7,760048015791625E-004
1,048867329955101E-001	8,243574102769578E-004
1,079715788364410E-001	8,603642822175017E-004
1,109514310956001E-001	8,910656659584966E-004
1,139705181121826E-001	9,339903380428663E-004
1,169195920228958E-001	9,799156203306007E-004
1,199715659022331E-001	1,016507545042740E-003
1,229439750313759E-001	1,043257806954943E-003
1,259312480688095E-001	1,075509552499118E-003
1,289376020431519E-001	1,119107686202336E-003
1,319683492183685E-001	1,137178985476790E-003
1,349492520093918E-001	1,165526804007404E-003
1,379492431879044E-001	1,200363525794260E-003
1,409280449151993E-001	1,225881645038070E-003
1,439566612243652E-001	1,258652206510549E-003
1,469375640153885E-001	1,278320992683900E-003
1,499556005001068E-001	1,311499762691798E-003
1,529662013053894E-001	1,334061480560707E-003
1,559184491634369E-001	1,359732976193639E-003
1,589502692222595E-001	1,393372927141076E-003
1,618810594081879E-001	1,420407238049946E-003
1,649025380611420E-001	1,427506715296442E-003
1,678993552923203E-001	1,455639298145392E-003
1,709311455488205E-001	1,470145508267033E-003
1,738961338996887E-001	1,497293633877708E-003
1,769491732120514E-001	1,523824344295224E-003
1,799353659152985E-001	1,556442948851912E-003
1,829417496919632E-001	1,563928120596626E-003
1,859312653541565E-001	1,600500622048515E-003
1,889809817075729E-001	1,611806249591740E-003
1,919671744108200E-001	1,633831605162145E-003
1,949523091316223E-001	1,648796195796519E-003
1,979480832815170E-001	1,672628255492890E-003
2,009321451187134E-001	1,708285895313531E-003
2,039088159799576E-001	1,718176265260097E-003
2,069268375635147E-001	1,730605987311857E-003
2,099438011646271E-001	1,769799148152943E-003
2,129247039556503E-001	1,783677539370497E-003
2,159204632043839E-001	1,799526350792065E-003
2,189247012138367E-001	1,815807027284150E-003
2,219872772693634E-001	1,845870125651815E-003
2,249416410923004E-001	1,870688384197251E-003
2,279480397701263E-001	1,881162271240975E-003
2,309617996215820E-001	1,911415654090157E-003
2,339586168527603E-001	1,946613364216990E-003
2,369374036788940E-001	1,958841163151960E-003
2,399532794952393E-001	1,989733950419278E-003
2,429543286561966E-001	2,023074950961420E-003
2,459129542112350E-001	2,034738274098211E-003
2,489638626575470E-001	2,058197590587146E-003
2,519840300083160E-001	2,091896544933906E-003
2,549458146095276E-001	2,110580987560007E-003
2,579214274883270E-001	2,148646582268335E-003
2,609359323978424E-001	2,169471894723388E-003
2,639585733413696E-001	2,186710765171396E-003
2,669267058372498E-001	2,203220044369424E-003
2,699914276599884E-001	2,256453555876052E-003
2,729171514511108E-001	2,266740392466694E-003
2,759065330028534E-001	2,280707250907593E-003
2,789043784141541E-001	2,305652191151034E-003
2,819341123104095E-001	2,372037667319762E-003
2,849510908126831E-001	2,362885551486175E-003
2,879553139209747E-001	2,393964233946194E-003
2,909553050994873E-001	2,422020093136881E-003
2,943053543567657E-001	2,483429658847541E-003
2,972725033760071E-001	2,521269248164675E-003
3,002735376358032E-001	2,556340082028990E-003
3,032936751842499E-001	2,587074624359420E-003
3,063233792781830E-001	2,621897490623976E-003
3,092607557773590E-001	2,660192241213118E-003
3,122533857822418E-001	2,683573451509737E-003
3,152416944503784E-001	2,715292287272568E-003
3,182820081710815E-001	2,745842483246067E-003
3,212363421916962E-001	2,778313307822421E-003
3,242650032043457E-001	2,820905152205982E-003
3,272840976715088E-001	2,847654085026421E-003
3,302735090255737E-001	2,891190223130655E-003
3,332310318946838E-001	2,927274724007237E-003
3,362828195095062E-001	2,961484497460627E-003
3,392554521560669E-001	2,994383327690947E-003
3,422586321830750E-001	3,029772902394784E-003
3,452628552913666E-001	3,060825592978354E-003
3,482978343963623E-001	3,092861576415404E-003
3,512787222862244E-001	3,133905416621861E-003
3,542744815349579E-001	3,172988524224996E-003
3,572723567485809E-001	3,209700382150779E-003
3,602545261383057E-001	3,244657746708389E-003
3,630241453647614E-001	3,274156451273788E-003
3,616705238819122E-001	2,220259260394850E-003
3,586927950382233E-001	1,960939487617004E-003
3,557086884975433E-001	1,776274125505656E-003
3,526716232299805E-001	1,638389726900238E-003
3,496620357036591E-001	1,510114367260104E-003
3,466641604900360E-001	1,408212571092278E-003
3,436705768108368E-001	1,303278045034623E-003
3,406748175621033E-001	1,217483294129596E-003
3,376238942146301E-001	1,126496668870526E-003
3,346504271030426E-001	1,048789692841064E-003
3,316366374492645E-001	9,728400876122499E-004
3,286928534507751E-001	9,008608455284683E-004
3,257183134555817E-001	8,419829275091509E-004
3,226621150970459E-001	7,751511937520413E-004
3,196483254432678E-001	7,167152539127360E-004
3,166324198246002E-001	6,609669502116340E-004
3,136568069458008E-001	6,061103824187607E-004
3,106605708599091E-001	5,493738646188536E-004
3,076706230640411E-001	5,033386228374351E-004
3,047257959842682E-001	4,492079433475772E-004
3,017215430736542E-001	4,105534637043693E-004
2,987205088138580E-001	3,666674704921498E-004
2,956908047199249E-001	3,172193440186344E-004
2,926738262176514E-001	2,748745704755718E-004
2,897173464298248E-001	2,296623226132081E-004
2,866929471492767E-001	1,891157039998000E-004
2,837237119674683E-001	1,510551682433933E-004
2,806707024574280E-001	1,132137822055395E-004
2,776982486248016E-001	7,893460634252080E-005
2,746558189392090E-001	5,103017674512611E-005
2,717162966728210E-001	1,995539597269643E-005
2,686887383460999E-001	-1,148413923720198E-005
2,656929790973663E-001	-4,897463679107475E-005
2,627258598804474E-001	-6,931382780036996E-005
2,596855759620667E-001	-1,073647916527420E-004
2,566993534564972E-001	-1,356171858717475E-004
2,536919414997101E-001	-1,595110761911656E-004
2,506876885890961E-001	-1,880613222511414E-004
2,476951330900192E-001	-2,176514379295438E-004
2,447015196084976E-001	-2,370547830381582E-004
2,416835129261017E-001	-2,727482100719995E-004
2,387492507696152E-001	-2,937305280701025E-004
2,357047051191330E-001	-3,191702684777356E-004
2,326718270778656E-001	-3,423524683005118E-004
2,297079265117645E-001	-3,662773330080213E-004
2,266877740621567E-001	-3,874303188024647E-004
2,237132042646408E-001	-4,054725133776256E-004
2,206909358501434E-001	-4,257371283734480E-004
2,176994532346725E-001	-4,532221332569687E-004
2,146856635808945E-001	-4,699899716595407E-004
2,116829007863998E-001	-4,935992657422649E-004
2,087090015411377E-001	-5,173102839998397E-004
2,057058364152908E-001	-5,425753896883267E-004
2,026910036802292E-001	-5,573649505768775E-004
1,996835768222809E-001	-5,771226172294470E-004
1,967005282640457E-001	-5,997255213717151E-004
1,937047839164734E-001	-6,236519574384944E-004
1,907090544700623E-001	-6,454906950036973E-004
1,876984387636185E-001	-6,630798515861579E-004
1,846878230571747E-001	-6,719591315737073E-004
1,816592067480087E-001	-6,954493542758022E-004
1,786793768405914E-001	-7,104748778214397E-004
1,756995469331741E-001	-7,274097149800388E-004
1,726825684309006E-001	-7,517221852645509E-004
1,697069555521011E-001	-7,688089138995248E-004
1,667016744613647E-001	-7,884608920802644E-004
1,636719703674316E-001	-8,095192951495158E-004
1,606730371713638E-001	-8,216063410886650E-004
1,577239632606506E-001	-8,399182368318877E-004
1,546932160854340E-001	-8,588027823727192E-004
1,517123281955719E-001	-8,686473354626075E-004
1,486773043870926E-001	-8,883426911510204E-004
1,457186788320541E-001	-9,088638625043000E-004
1,427133828401566E-001	-9,222924857534044E-004
1,397293061017990E-001	-9,415345539983515E-004
1,367038190364838E-001	-9,582470115750280E-004
1,337186992168427E-001	-9,735463894752737E-004
1,307218819856644E-001	-9,866269259267355E-004
1,276932805776596E-001	-1,004941778740392E-003
1,246890276670456E-001	-1,022253085264107E-003
1,217017695307732E-001	-1,033400911385089E-003
1,186752617359161E-001	-1,058741823524339E-003
1,156635805964470E-001	-1,070010714977766E-003
1,127134487032890E-001	-1,085036062620389E-003
1,096699610352516E-001	-1,101351771568355E-003
1,067092120647430E-001	-1,110801957111111E-003
1,036582961678505E-001	-1,128270486703883E-003
1,007060408592224E-001	-1,141163325950469E-003
9,770499169826508E-002	-1,163408655378999E-003
9,471773356199265E-002	-1,176872910744149E-003
9,174107015132904E-002	-1,196060602254610E-003
8,871137350797653E-002	-1,206493794597918E-003
8,571775257587433E-002	-1,222922503209836E-003
8,269335329532623E-002	-1,233771682126206E-003
7,973048835992813E-002	-1,247929049525363E-003
7,670184969902039E-002	-1,263737568984247E-003
7,372201234102249E-002	-1,287792583752887E-003
7,075277715921402E-002	-1,292785309892179E-003
6,772521138191223E-002	-1,319396918444437E-003
6,470612436532974E-002	-1,329910447600046E-003
6,377790123224258E-002	-6,255319379272770E-004
6,682668626308441E-002	-3,921896655069935E-004
6,983835995197296E-002	-2,403013429967717E-004
7,279592007398605E-002	-1,262034061716228E-004
7,582243531942368E-002	-3,328235487598114E-005
7,880439609289169E-002	4,878564326191875E-005
8,183515071868896E-002	1,194281779190844E-004
8,480968326330185E-002	1,798294097175845E-004
8,780118823051453E-002	2,419385853529469E-004
9,080331027507782E-002	2,910637989017512E-004
9,381179511547089E-002	3,531483735196564E-004
9,678208082914352E-002	3,908189687325397E-004
9,980752319097519E-002	4,461543182127659E-004
1,027809977531433E-001	4,881356268621549E-004
1,058011651039124E-001	5,372709854917189E-004
1,088340356945992E-001	5,718897314687206E-004
1,118051931262016E-001	6,126162966658202E-004
1,148319095373154E-001	6,532452946514770E-004
1,178255304694176E-001	6,933974402474827E-004
1,207756623625755E-001	7,320975604401363E-004
1,237756609916687E-001	7,663021675667847E-004
1,267968714237213E-001	7,951110217416305E-004
1,298393011093140E-001	8,294904522093312E-004
1,328064054250717E-001	8,557930700421656E-004
1,357936561107636E-001	8,877124695303505E-004
1,387777477502823E-001	9,196453945521533E-004
1,417777389287949E-001	9,536066536384169E-004
1,448042541742325E-001	9,795588312381774E-004
1,478233635425568E-001	1,002574606428865E-003
1,507787853479385E-001	1,033147715875038E-003
1,538159102201462E-001	1,058281891245213E-003
1,567692458629608E-001	1,082390630876440E-003
1,598074138164520E-001	1,108484339056306E-003
1,627543568611145E-001	1,127965385051166E-003
1,657914966344833E-001	1,161606776737177E-003
1,687692105770111E-001	1,183910961656317E-003
1,717713028192520E-001	1,209397550324124E-003
1,747691780328751E-001	1,235878657704834E-003
1,778020858764648E-001	1,258272808627227E-003
1,807808429002762E-001	1,274281496551812E-003
1,837946325540543E-001	1,295808561634554E-003
1,868177056312561E-001	1,320686055544704E-003
1,897925138473511E-001	1,352319861729892E-003
1,927935630083084E-001	1,368577186103382E-003
1,958062946796417E-001	1,394090549890994E-003
1,987829357385635E-001	1,408765834505034E-003
2,017351984977722E-001	1,433231390196683E-003
2,047723233699799E-001	1,453417126564702E-003
2,077913731336594E-001	1,473086672545089E-003
2,108136564493179E-001	1,496139794956740E-003
2,137892842292786E-001	1,518525363213410E-003
2,167988121509552E-001	1,546179915210270E-003
2,198041081428528E-001	1,566673261415279E-003
2,227913588285446E-001	1,587704613619413E-003
2,258062213659287E-001	1,608805331030728E-003
2,287924289703369E-001	1,627844643263862E-003
2,318316549062729E-001	1,654941415095160E-003
2,347574084997177E-001	1,675006633309686E-003
2,377987802028656E-001	1,697646384720287E-003
2,407966256141663E-001	1,727903993149222E-003
2,438305765390396E-001	1,743677460278075E-003
2,468072324991226E-001	1,777263452822798E-003
2,498114556074142E-001	1,790914191385835E-003
2,527881264686584E-001	1,811611998332581E-003
2,558040320873261E-001	1,836278578762342E-003
2,587828040122986E-001	1,858523167255856E-003
2,617923617362976E-001	1,889120560749524E-003
2,647912800312042E-001	1,910292289081827E-003
2,678135633468628E-001	1,934803857929417E-003
2,708050608634949E-001	1,957863494074744E-003
2,737806439399719E-001	1,984640722285909E-003
2,768262624740601E-001	2,000859286690013E-003
2,797530591487885E-001	2,029045427021901E-003
2,827976047992706E-001	2,056512361849422E-003
2,858257293701172E-001	2,087579403720674E-003
2,887944281101227E-001	2,105765498493341E-003
2,917785048484802E-001	2,141206829239517E-003
2,947562038898468E-001	2,166834405485396E-003
2,978028953075409E-001	2,190315343560297E-003
3,008018434047699E-001	2,217202160089207E-003
3,037667870521545E-001	2,245551412030446E-003
3,068219721317291E-001	2,278594710568776E-003
3,097646832466125E-001	2,313298250050548E-003
3,127148151397705E-001	2,347119156588129E-003
3,157646358013153E-001	2,373552605503284E-003
3,187487423419952E-001	2,400637759786099E-003
3,217391967773438E-001	2,437985311391670E-003
3,247752785682678E-001	2,468214994156295E-003
3,277508318424225E-001	2,496448177596367E-003
3,307901024818420E-001	2,528518271261694E-003
3,337253928184509E-001	2,573255036151287E-003
3,367911577224731E-001	2,603927649572679E-003
3,397921919822693E-001	2,626604170978273E-003
3,427678048610687E-001	2,671892294731350E-003
3,457699120044708E-001	2,700859689395192E-003
3,487995862960815E-001	2,731102382380460E-003
3,517943024635315E-001	2,770331372664303E-003
3,547836840152740E-001	2,801814503510719E-003
3,577868640422821E-001	2,846883575128023E-003
3,607468008995056E-001	2,887399483047025E-003
3,633393049240112E-001	2,891151122403915E-003
3,606636822223663E-001	1,763622797547198E-003
3,576373159885406E-001	1,553184740327257E-003
3,547051846981049E-001	1,403598282734123E-003
3,516913652420044E-001	1,280223603114588E-003
3,486468493938446E-001	1,170630826689173E-003
3,456946015357971E-001	1,063917075818476E-003
3,426914215087891E-001	9,789001293635620E-004
3,396808207035065E-001	8,984996214470202E-004
3,366500735282898E-001	8,162556325799050E-004
3,336691558361053E-001	7,445396259518709E-004
3,306829631328583E-001	6,798749723034079E-004
3,276702165603638E-001	6,175109359631936E-004
3,246872127056122E-001	5,588389883120753E-004
3,216479420661926E-001	4,963911504900250E-004
3,186362981796265E-001	4,391751871042782E-004
3,156798183917999E-001	3,913422819737103E-004
3,126649260520935E-001	3,393554661362444E-004
3,096553981304169E-001	2,909830282636387E-004
3,067105710506439E-001	2,460453561794313E-004
3,036734461784363E-001	1,972714829189794E-004
3,007222712039948E-001	1,582549181109619E-004
2,976946830749512E-001	1,113500599585809E-004
2,946639358997345E-001	7,417333895887179E-005
2,916830182075500E-001	3,962343629540207E-005
2,887159287929535E-001	1,885945661039015E-006
2,857058048248291E-001	-3,751740622925693E-005
2,827031910419464E-001	-6,715654429179151E-005
2,796702980995178E-001	-1,020574961685312E-004
2,766925990581512E-001	-1,307464127404183E-004
2,736692726612091E-001	-1,696696939793201E-004
2,706586718559265E-001	-1,981929595175117E-004
2,677297294139862E-001	-2,260665993305700E-004
2,646799087524414E-001	-2,548197751053214E-004
2,617085278034210E-001	-2,775211079816542E-004
2,586852312088013E-001	-3,106307100814042E-004
2,557350993156433E-001	-3,329765758398059E-004
2,526990473270416E-001	-3,632205961985402E-004
2,497032880783081E-001	-3,801561365814141E-004
2,467329800128937E-001	-4,124516364725070E-004
2,437022030353546E-001	-4,359085762559878E-004
2,407075464725494E-001	-4,601014963757029E-004
2,376725375652313E-001	-4,793722188912426E-004
2,346746623516083E-001	-5,060118726894994E-004
2,317117750644684E-001	-5,244942635895490E-004
2,286704331636429E-001	-5,501346176296712E-004
2,256598323583603E-001	-5,783954973055570E-004
2,226991057395935E-001	-5,997010643517967E-004
2,196534723043442E-001	-6,183499962625523E-004
2,166895419359207E-001	-6,404156412692689E-004
2,137160748243332E-001	-6,629002055989174E-004
2,107097059488297E-001	-6,721635556998643E-004
2,077097147703171E-001	-6,949904065415343E-004
2,046662271022797E-001	-7,115703489641110E-004
2,016513794660568E-001	-7,424327438153924E-004
1,986630707979202E-001	-7,472718370317363E-004
1,956970095634460E-001	-7,716249631441858E-004
1,927182376384735E-001	-7,836597121274290E-004
1,896524876356125E-001	-8,055280259550626E-004
1,867029964923859E-001	-8,219813393741753E-004
1,836684048175812E-001	-8,404284159984872E-004
1,806620508432388E-001	-8,551497789826314E-004
1,776705235242844E-001	-8,815336157028831E-004
1,746620386838913E-001	-8,956100650215765E-004
1,716779619455338E-001	-9,108243969051339E-004
1,687119156122208E-001	-9,293838850647183E-004
1,656610071659088E-001	-9,484722853543319E-004
1,626907289028168E-001	-9,554145831821743E-004
1,596970856189728E-001	-9,755229858220190E-004
1,566917896270752E-001	-9,890642134080365E-004
1,537193804979324E-001	-1,007025913875425E-003
1,507066488265991E-001	-1,027607231932322E-003
1,477119624614716E-001	-1,042830303857853E-003
1,447172760963440E-001	-1,060284575133765E-003
1,417194008827209E-001	-1,074628519779283E-003
1,387024372816086E-001	-1,087518609387592E-003
1,356738060712814E-001	-1,104394575964692E-003
1,326812207698822E-001	-1,120205877129970E-003
1,296854615211487E-001	-1,139012987820294E-003
1,266642659902573E-001	-1,156253940145551E-003
1,236674636602402E-001	-1,172980191902886E-003
1,207236871123314E-001	-1,182121926292349E-003
1,176674664020538E-001	-1,198200176009712E-003
1,147162690758705E-001	-1,210862565332923E-003
1,116923391819000E-001	-1,222560658425459E-003
1,086855232715607E-001	-1,238848785794324E-003
1,056717410683632E-001	-1,258218417879775E-003
1,027216017246246E-001	-1,269020145695389E-003
9,972902387380600E-002	-1,284131334142768E-003
9,673964232206345E-002	-1,295046438085765E-003
9,370677173137665E-002	-1,315629077267930E-003
9,074284881353378E-002	-1,325278070133340E-003
8,770783990621567E-002	-1,343180664089570E-003
8,471526950597763E-002	-1,358097075016876E-003
8,174604177474976E-002	-1,375775561259446E-003
7,869724929332733E-002	-1,392477919176191E-003
7,572377473115921E-002	-1,403922817661185E-003
7,272484898567200E-002	-1,424432469421946E-003
6,973757594823837E-002	-1,426245418972233E-003
6,670681387186050E-002	-1,446744706400847E-003
6,372273713350296E-002	-1,460730601980618E-003
6,479416787624359E-002	-6,456028915164556E-004
6,782279908657074E-002	-4,617249812023756E-004
7,078249007463455E-002	-3,420286844394234E-004
7,383446395397186E-002	-2,356578248798387E-004
7,681217789649963E-002	-1,484237095861619E-004
7,982065528631210E-002	-6,179279967921257E-005
8,283338695764542E-002	9,541084462543603E-006
8,577503263950348E-002	7,135610404523734E-005
8,881852030754089E-002	1,370686092221108E-004
9,181002527475357E-002	1,900515456087144E-004
9,482380747795105E-002	2,358829139363179E-004
9,777075052261353E-002	2,907703690240198E-004
1,008237898349762E-001	3,302933432252080E-004
1,037760525941849E-001	3,781427320751199E-004
1,068004518747330E-001	4,150083521515767E-004
1,098110526800156E-001	4,555235614976429E-004
1,127569451928139E-001	5,039518184478051E-004
1,158025339245796E-001	5,393510327175392E-004
1,187972426414490E-001	5,785925386926800E-004
1,217845007777214E-001	6,042562938630542E-004
1,247844994068146E-001	6,437577090023473E-004
1,277866065502167E-001	6,715107986868460E-004
1,308226585388184E-001	7,047172257443873E-004
1,338237375020981E-001	7,459015105268935E-004
1,367750763893127E-001	7,733078043873579E-004
1,398025006055832E-001	8,035617114796043E-004
1,428290158510208E-001	8,322675944833040E-004
1,458088606595993E-001	8,604742718792587E-004
1,488046050071716E-001	8,836050939054190E-004
1,517844349145889E-001	9,136952771600405E-004
1,547738313674927E-001	9,385877297231858E-004
1,577717214822769E-001	9,722371325080080E-004
1,607568562030792E-001	9,898356978805291E-004
1,637462377548218E-001	1,023586061044766E-003
1,667727530002594E-001	1,046490362366762E-003
1,698226034641266E-001	1,070301188182958E-003
1,727790981531143E-001	1,091159982024690E-003
1,757812201976776E-001	1,111223850279605E-003
1,788077205419540E-001	1,138361757949937E-003
1,817727088928223E-001	1,168079635708297E-003
1,848194003105164E-001	1,190716050149169E-003
1,877504289150238E-001	1,210212600940227E-003
1,908151209354401E-001	1,235144828603586E-003
1,938045322895050E-001	1,256457162121985E-003
1,968267858028412E-001	1,281382044301913E-003
1,997578144073486E-001	1,293834984405997E-003
2,027811706066132E-001	1,319179855339893E-003
2,057832777500153E-001	1,346427511937993E-003
2,088246494531631E-001	1,368582744261306E-003
2,117976993322372E-001	1,385759753065062E-003
2,148108333349228E-001	1,413826390893925E-003
2,178108394145966E-001	1,429292799676424E-003
2,208320498466492E-001	1,449312038015772E-003
2,238245904445648E-001	1,470753846526219E-003
2,268065661191940E-001	1,499940332804626E-003
2,298447489738464E-001	1,523253348110567E-003
2,328076064586639E-001	1,544134910040558E-003
2,358290255069733E-001	1,568604889291180E-003
2,388044148683548E-001	1,582259143847128E-003
2,417619824409485E-001	1,611230112892510E-003
2,447916716337204E-001	1,630390314352959E-003
2,477948516607285E-001	1,650041367543893E-003
2,508043944835663E-001	1,672479585168829E-003
2,537916600704193E-001	1,704774854092483E-003
2,568097114562988E-001	1,718391407781321E-003
2,597842216491699E-001	1,745927060255784E-003
2,627884745597839E-001	1,760879767297649E-003
2,657916247844696E-001	1,791949330557457E-003
2,687789201736450E-001	1,805402623345068E-003
2,718022167682648E-001	1,839308227688338E-003
2,747905552387238E-001	1,859191647748022E-003
2,777799069881439E-001	1,894602846058892E-003
2,807672321796417E-001	1,913660212098705E-003
2,838149368762970E-001	1,945968835368862E-003
2,867958247661591E-001	1,967340188760630E-003
2,897958457469940E-001	1,991678957926565E-003
2,928022146224976E-001	2,020148248616509E-003
2,957809567451477E-001	2,039594100400183E-003
2,988181114196777E-001	2,063981527936881E-003
3,017947375774384E-001	2,094549892515514E-003
3,047767281532288E-001	2,127080164360376E-003
3,077480792999268E-001	2,152241235307883E-003
3,107942342758179E-001	2,185196856974418E-003
3,138000667095184E-001	2,204729759089075E-003
3,167607784271240E-001	2,235757413371982E-003
3,197459280490875E-001	2,272731904263827E-003
3,227501511573792E-001	2,304779600914730E-003
3,257883191108704E-001	2,339097677947761E-003
3,287968039512634E-001	2,368114411149653E-003
3,318020999431610E-001	2,400467623104958E-003
3,348031938076019E-001	2,434208254810610E-003
3,377246856689453E-001	2,466409440482185E-003
3,407734632492065E-001	2,492682108789245E-003
3,437819480895996E-001	2,525716290013708E-003
3,467915058135986E-001	2,560504021217905E-003
3,498137295246124E-001	2,602725064207327E-003
3,527797758579254E-001	2,623057526458680E-003
3,557596504688263E-001	2,666228237406662E-003
3,587871789932251E-001	2,695571423154675E-003
3,617787063121796E-001	2,731831988731524E-003
3,626485764980316E-001	1,877257185158132E-003
3,597005903720856E-001	1,530702231388272E-003
3,566825687885284E-001	1,349943802509827E-003
3,536772727966309E-001	1,204038533480211E-003
3,506518006324768E-001	1,080409976431702E-003
3,477016389369965E-001	9,876512865755801E-004
3,446878790855408E-001	8,883145872257726E-004
3,416709303855896E-001	8,101436856291170E-004
3,386794030666351E-001	7,382340213721540E-004
3,356843292713165E-001	6,644079204171120E-004
3,326656222343445E-001	5,941803054291214E-004
3,296762406826019E-001	5,227204666745696E-004
3,266911208629608E-001	4,710895550993463E-004
3,236932456493378E-001	4,034439224743346E-004
3,206985592842102E-001	3,573622908350908E-004
3,176550567150116E-001	3,010409911762798E-004
3,146677911281586E-001	2,522624011990669E-004
3,116709589958191E-001	2,052966876909778E-004
3,086677789688110E-001	1,582696601217671E-004
3,057134449481964E-001	1,038424415940368E-004
3,026571869850159E-001	6,131273297374582E-005
2,997049391269684E-001	2,786314198783337E-005
2,967091798782349E-001	-1,236986606304412E-005
2,937155365943909E-001	-5,230311950904734E-005
2,906964719295502E-001	-8,444667096125293E-005
2,876805663108826E-001	-1,154032652588124E-004
2,846752703189850E-001	-1,519380341482952E-004
2,816858887672424E-001	-1,919405474382065E-004
2,786519527435303E-001	-2,197405034899524E-004
2,756880223751068E-001	-2,447587227273375E-004
2,726668119430542E-001	-2,750989751621404E-004
2,696954607963562E-001	-3,082390989224766E-004
2,667018175125122E-001	-3,334726427763378E-004
2,637113630771637E-001	-3,600641063809685E-004
2,607304751873016E-001	-3,813841399430218E-004
2,577156424522400E-001	-4,201635531802363E-004
2,546848654747009E-001	-4,441874153094990E-004
2,516859471797943E-001	-4,695718757408958E-004
2,486923187971115E-001	-4,932908524534919E-004
2,457082271575928E-001	-5,125767644400467E-004
2,426955103874207E-001	-5,381193361784073E-004
2,396997511386871E-001	-5,610057680179911E-004
2,367411404848099E-001	-5,836674249790286E-004
2,337135672569275E-001	-6,193895872423105E-004
2,306827902793884E-001	-6,373182804290320E-004
2,276976704597473E-001	-6,563458200280065E-004
2,246966063976288E-001	-6,686431760398459E-004
2,217199504375458E-001	-7,006795773055220E-004
2,186838835477829E-001	-7,120736530244667E-004
2,156690210103989E-001	-7,389550145388887E-004
2,126913368701935E-001	-7,542906439118313E-004
2,097008526325226E-001	-7,794846506941362E-004
2,067136019468308E-001	-8,000888631579923E-004
2,037189304828644E-001	-8,148979188802117E-004
2,007104456424713E-001	-8,366622096218634E-004
1,977104544639587E-001	-8,467643751996741E-004
1,946956217288971E-001	-8,664523256474814E-004
1,916828751564026E-001	-8,818827294884649E-004
1,886945366859436E-001	-9,044472981595744E-004
1,857073009014130E-001	-9,135695391806727E-004
1,827486753463745E-001	-9,427610368422604E-004
1,796627491712570E-001	-9,686490818610199E-004
1,766977608203888E-001	-9,789093970472042E-004
1,736563891172409E-001	-9,873515990437703E-004
1,706744432449341E-001	-1,011406804469452E-003
1,677105128765106E-001	-1,021453393520829E-003
1,646839976310730E-001	-1,043892680442055E-003
1,616492122411728E-001	-1,053693376798687E-003
1,586776375770569E-001	-1,071717043453612E-003
1,557306796312332E-001	-1,091684070868518E-003
1,527147889137268E-001	-1,106837149159722E-003
1,497094780206680E-001	-1,120269893565116E-003
1,466999351978302E-001	-1,131120822618768E-003
1,436914652585983E-001	-1,145909219269891E-003
1,407063156366348E-001	-1,157972413137844E-003
1,377073824405670E-001	-1,184737325847554E-003
1,346935927867889E-001	-1,191772158900100E-003
1,317127048969269E-001	-1,212606305570157E-003
1,286925375461578E-001	-1,224407453129835E-003
1,257095336914063E-001	-1,244235397785409E-003
1,226893886923790E-001	-1,255853307224306E-003
1,197084784507751E-001	-1,268308697035536E-003
1,167074292898178E-001	-1,282221250154113E-003
1,137169823050499E-001	-1,306361543457668E-003
1,106936484575272E-001	-1,314959220676596E-003
1,077169999480248E-001	-1,332979306122678E-003
1,047010943293571E-001	-1,345748657142935E-003
1,017074510455132E-001	-1,355846216298504E-003
9,869155287742615E-002	-1,366749593688411E-003
9,570429474115372E-002	-1,380561344747004E-003
9,272233396768570E-002	-1,392319962448065E-003
8,972657471895218E-002	-1,412497835527003E-003
8,671213686466217E-002	-1,430506880074765E-003
8,370007574558258E-002	-1,440669579029351E-003
8,070219308137894E-002	-1,459688223500656E-003
7,770115137100220E-002	-1,475342359265563E-003
7,470326870679855E-002	-1,486412527743529E-003
7,170964032411575E-002	-1,502560273770034E-003
6,870540231466293E-002	-1,511555808166223E-003
6,568206846714020E-002	-1,535496383305010E-003
6,315097957849503E-002	-1,542872167192400E-003
6,579664349555969E-002	-6,563008798063166E-004
6,883800029754639E-002	-5,006368234414067E-004
7,181253284215927E-002	-3,849420329263224E-004
7,480829209089279E-002	-2,904915077124324E-004
7,778601348400116E-002	-1,899973960396051E-004
8,084222674369812E-002	-1,147061783510349E-004
8,381888270378113E-002	-5,262926206339301E-005
8,682373911142349E-002	1,791948629627625E-005
8,979022502899170E-002	7,747352523200307E-005
9,279977530241013E-002	1,262615522782185E-004
9,584432095289230E-002	1,784819525520189E-004
9,876898676156998E-002	2,229187063010026E-004
1,017976254224777E-001	2,762826048181236E-004
1,048039793968201E-001	3,184953006004445E-004
1,077965572476387E-001	3,583044645962558E-004
1,107615455985069E-001	3,953885051154685E-004
1,138050407171249E-001	4,344400035223455E-004
1,167774423956871E-001	4,702868072012350E-004
1,198113784193993E-001	5,071130564694480E-004
1,227753087878227E-001	5,419385311648140E-004
1,258018165826797E-001	5,830245637736386E-004
1,287975907325745E-001	6,175470850764576E-004
1,317837834358215E-001	6,470276921390909E-004
1,348007470369339E-001	6,697147156821161E-004
1,377827078104019E-001	7,031444189730500E-004
1,408134549856186E-001	7,313127775382270E-004
1,437710225582123E-001	7,580481094380392E-004
1,468145251274109E-001	7,905564092383164E-004
1,498516350984573E-001	8,184642414966626E-004
1,528102457523346E-001	8,488281956589259E-004
1,557763069868088E-001	8,764048480198062E-004
1,587699353694916E-001	8,962755433727845E-004
1,617989987134933E-001	9,219513681439132E-004
1,648218929767609E-001	9,472884936527655E-004
1,677837222814560E-001	9,688019954073399E-004
1,707911342382431E-001	9,975703243172655E-004
1,737953722476959E-001	1,019199807126787E-003
1,767889857292175E-001	1,047534487615510E-003
1,797762662172318E-001	1,074408083190471E-003
1,827805042266846E-001	1,090707839197156E-003
1,857995986938477E-001	1,110362045168321E-003
1,887634992599487E-001	1,135577953256736E-003
1,918123066425323E-001	1,151739140402273E-003
1,947889775037766E-001	1,174034404458426E-003
1,977995634078979E-001	1,201999499581119E-003
2,007931768894196E-001	1,225471730760073E-003
2,038048356771469E-001	1,248750519422442E-003
2,067963480949402E-001	1,267888088208297E-003
2,097751349210739E-001	1,287182532973087E-003
2,127645164728165E-001	1,308288678652998E-003
2,157846689224243E-001	1,327285982471142E-003
2,187729924917221E-001	1,351083960697802E-003
2,217889130115509E-001	1,373996804263540E-003
2,248175293207169E-001	1,393447848116652E-003
2,277804017066956E-001	1,425969255285091E-003
2,307941764593124E-001	1,446537802284759E-003
2,338154017925262E-001	1,467630115021851E-003
2,368217557668686E-001	1,483103371558374E-003
2,397835552692413E-001	1,503365480689181E-003
2,428185641765594E-001	1,533039389566211E-003
2,457846254110336E-001	1,554630245664160E-003
2,488153725862503E-001	1,581095473806339E-003
2,517814338207245E-001	1,601296855100114E-003
2,548429369926453E-001	1,623453647846856E-003
2,578047513961792E-001	1,639657009541731E-003
2,608037889003754E-001	1,662424372298386E-003
2,637495696544647E-001	1,685683810339671E-003
2,667707800865173E-001	1,711777455057021E-003
2,697962224483490E-001	1,739503838945423E-003
2,727643847465515E-001	1,764401347760146E-003
2,758078873157501E-001	1,783213994780521E-003
2,787548303604126E-001	1,810424110132127E-003
2,818110585212708E-001	1,842407162055480E-003
2,847526967525482E-001	1,857935414591338E-003
2,877760529518127E-001	1,881190893915054E-003
2,907972335815430E-001	1,907856199034506E-003
2,937908768653870E-001	1,943798659744474E-003
2,968205809593201E-001	1,966582651625182E-003
2,997834384441376E-001	1,993531051859322E-003
3,027951121330261E-001	2,019433142171088E-003
3,057590425014496E-001	2,049267337025856E-003
3,087664544582367E-001	2,070203267201719E-003
3,117749392986298E-001	2,099213436142445E-003
3,147494792938232E-001	2,123036957022539E-003
3,177886903285980E-001	2,161013884351293E-003
3,207568824291229E-001	2,191502358915323E-003
3,237579464912415E-001	2,219802010653516E-003
3,267621695995331E-001	2,242335099220295E-003
3,297303617000580E-001	2,283294382020046E-003
3,327430784702301E-001	2,305746988794351E-003
3,357917368412018E-001	2,338654403188780E-003
3,387992680072784E-001	2,367815965920235E-003
3,417822718620300E-001	2,406439524579411E-003
3,447780609130859E-001	2,433703704607763E-003
3,477599918842316E-001	2,467801760185802E-003
3,507758975028992E-001	2,497841095545388E-003
3,537451326847076E-001	2,529271207027631E-003
3,568162024021149E-001	2,559096366220967E-003
3,597737550735474E-001	2,593219699014705E-003
3,627080023288727E-001	2,628728522352125E-003
3,616684079170227E-001	1,599674389042224E-003
3,586514592170715E-001	1,358673561938943E-003
3,556662499904633E-001	1,184000989774683E-003
3,526577949523926E-001	1,069077412938459E-003
3,496694862842560E-001	9,524658376499819E-004
3,466843366622925E-001	8,581265807421287E-004
3,436854183673859E-001	7,677966070871334E-004
3,406482934951782E-001	6,881468835436624E-004
3,376790583133698E-001	6,063316180155145E-004
3,346652686595917E-001	5,424230941436575E-004
3,316217958927155E-001	4,769004417876539E-004
3,286779820919037E-001	4,076158389849554E-004
3,256949782371521E-001	3,567038185057858E-004
3,226408660411835E-001	3,038499904943360E-004
3,196504414081573E-001	2,465695786274011E-004
3,166398406028748E-001	1,974246018204388E-004
3,136536478996277E-001	1,483626147556340E-004
3,107231259346008E-001	9,700877744422249E-005
3,077130615711212E-001	5,424827616675170E-005
3,046823143959045E-001	1,108617526628889E-005
3,016897439956665E-001	-1,637583612008512E-005
2,987056672573090E-001	-5,734027743570865E-005
2,957151830196381E-001	-9,411217220434533E-005
2,927173376083374E-001	-1,335798587244649E-004
2,896929681301117E-001	-1,753480927801682E-004
2,866993248462677E-001	-2,082535733248340E-004
2,836844623088837E-001	-2,386389342477089E-004
2,806642949581146E-001	-2,713581531198868E-004
2,776855230331421E-001	-2,986428835382825E-004
2,746897935867310E-001	-3,216809467653427E-004
2,716876566410065E-001	-3,618355725386654E-004
2,686919271945953E-001	-3,828018544561919E-004
2,657025456428528E-001	-4,163232276673695E-004
2,626791894435883E-001	-4,344445361412997E-004
2,597036063671112E-001	-4,678907457505207E-004
2,567439079284668E-001	-4,933139997336654E-004
2,536908686161041E-001	-5,244310442422927E-004
2,507290840148926E-001	-5,408964847514706E-004
2,477163523435593E-001	-5,620040916188293E-004
2,446728646755219E-001	-5,887744656421189E-004
2,416941076517105E-001	-6,197706534968117E-004
2,386972755193710E-001	-6,400000976201305E-004
2,356993854045868E-001	-6,645216908509628E-004
2,327365279197693E-001	-6,814171278232686E-004
2,297015339136124E-001	-7,046146267923720E-004
2,267110943794250E-001	-7,247445478747588E-004
2,237291485071182E-001	-7,362306280777322E-004
2,207047492265701E-001	-7,590793109018192E-004
2,176941484212875E-001	-7,848360384943819E-004
2,146877795457840E-001	-8,057333477524860E-004
2,117338776588440E-001	-8,212654706645089E-004
2,086994647979736E-001	-8,393724920433988E-004
2,057047635316849E-001	-8,630888966123414E-004
2,027036994695663E-001	-8,803662256266567E-004
1,996835768222809E-001	-8,986535282962910E-004
1,966824978590012E-001	-9,120448405694846E-004
1,936751157045364E-001	-9,341727072077685E-004
1,906687468290329E-001	-9,510177938123147E-004
1,876634508371353E-001	-9,776968758227738E-004
1,846793591976166E-001	-9,869134803550499E-004
1,817090660333633E-001	-1,002659435067066E-003
1,786793470382690E-001	-1,014435236424173E-003
1,756613403558731E-001	-1,036979254152996E-003
1,726730167865753E-001	-1,048315437839376E-003
1,696772724390030E-001	-1,069943560853270E-003
1,667037904262543E-001	-1,085270118319725E-003
1,636592298746109E-001	-1,105979090223426E-003
1,606645584106445E-001	-1,111436030273409E-003
1,576932072639465E-001	-1,136300540868739E-003
1,547123044729233E-001	-1,145528534026300E-003
1,516582071781158E-001	-1,161692096367782E-003
1,486964076757431E-001	-1,176640880994796E-003
1,457112580537796E-001	-1,197669809631343E-003
1,427155137062073E-001	-1,216411262753863E-003
1,397133916616440E-001	-1,230345892744716E-003
1,366571038961411E-001	-1,244851167596665E-003
1,337218880653381E-001	-1,256881601067204E-003
1,307155191898346E-001	-1,266095690004512E-003
1,276932805776596E-001	-1,286840894425513E-003
1,246890276670456E-001	-1,300030262764602E-003
1,217144876718521E-001	-1,310455344840495E-003
1,187304183840752E-001	-1,328297434493258E-003
1,156837418675423E-001	-1,350831902123494E-003
1,127145066857338E-001	-1,362220562710986E-003
1,096742004156113E-001	-1,376350204399964E-003
1,066752746701241E-001	-1,389835206619287E-003
1,037410572171211E-001	-1,400344160949182E-003
1,006742194294930E-001	-1,419761511998435E-003
9,768695384263992E-002	-1,437197634341254E-003
9,474211931228638E-002	-1,454622391099327E-003
9,171348065137863E-002	-1,471677137656280E-003
8,870076388120651E-002	-1,478300834639450E-003
8,569971472024918E-002	-1,497960979813123E-003
8,272942155599594E-002	-1,500850488136397E-003
7,969123125076294E-002	-1,518501537012292E-003
7,670503854751587E-002	-1,530352336515169E-003
7,371564209461212E-002	-1,550310405744112E-003
7,067958265542984E-002	-1,557057035420758E-003
6,771142035722733E-002	-1,578544150376089E-003
6,471779197454453E-002	-1,589814526529084E-003
6,377895921468735E-002	-8,850013587275614E-004
6,678425520658493E-002	-6,549947024554834E-004
6,978001445531845E-002	-5,037083954246378E-004
7,285638153553009E-002	-3,960127467726804E-004
7,579591125249863E-002	-3,062056136389781E-004
7,881394028663635E-002	-2,212695174207283E-004
8,182030171155930E-002	-1,478595534823372E-004
8,474922180175781E-002	-8,561684070375565E-005
8,783300966024399E-002	-2,151954939222367E-005
9,082771092653275E-002	3,670333082136836E-005
9,380435943603516E-002	8,959444967878761E-005
9,680116921663284E-002	1,326056392303846E-004
9,982237964868546E-002	1,884757996324774E-004
1,028202474117279E-001	2,318116516511919E-004
1,057884246110916E-001	2,733591023503256E-004
1,088096350431442E-001	3,104619997526695E-004
1,117850616574287E-001	3,534623469468100E-004
1,148043125867844E-001	3,875002304143740E-004
1,178085580468178E-001	4,290024094544265E-004
1,208085492253304E-001	4,634372202063884E-004
1,237756609916687E-001	4,995102488431213E-004
1,267947554588318E-001	5,330320392810464E-004
1,298042982816696E-001	5,683876613855089E-004
1,328042745590210E-001	5,951654022485165E-004
1,357968300580978E-001	6,288959027221670E-004
1,388413906097412E-001	6,569448936783445E-004
1,417936533689499E-001	6,853219800649207E-004
1,447480320930481E-001	7,167482181776666E-004
1,478233486413956E-001	7,414963362895894E-004
1,507766693830490E-001	7,718127287295855E-004
1,537947058677673E-001	7,942532931877050E-004
1,567607372999191E-001	8,273661633548153E-004
1,597914993762970E-001	8,486458832690225E-004
1,627734601497650E-001	8,664440536247410E-004
1,658020913600922E-001	8,994970382816443E-004
1,687670797109604E-001	9,275941106521007E-004
1,706734299659729E-001	8,309573839561874E-004