File: fig_si_ecsa/ZrO2/100.txt
C:\EC-lab data\Neethu\2024_10_01_Ni90Fe10_ZrO2\CV_ECSA\CV_ECSA_04_CV_C01.mpr
Ewe/V	<I>/mA
6,674079596996307E-002	-3,269604966044426E-002
6,869161874055862E-002	-3,851712228020510E-003
7,168524712324142E-002	-1,817729526111280E-003
7,472448796033859E-002	-7,791003667736926E-004
8,068840950727463E-002	-5,686683145490357E-004
8,370006829500198E-002	-2,007603447395918E-004
8,671279251575470E-002	8,224575357158089E-005
9,271065890789032E-002	1,637305252996967E-003
9,571172297000885E-002	1,823299585844833E-003
9,868837147951126E-002	2,099434907702549E-003
1,033167317509651E-001	2,183461940242132E-003
1,076650172472000E-001	2,476805141365434E-003
1,107063889503479E-001	2,519691368838225E-003
1,137084960937500E-001	2,839862387190814E-003
1,166893988847733E-001	3,104155573358483E-003
1,197159141302109E-001	3,225890956552291E-003
1,226352751255035E-001	3,264614285095981E-003
1,256384551525116E-001	3,370756754924927E-003
1,287190765142441E-001	3,475507374484252E-003
1,316946744918823E-001	3,445041251931499E-003
1,347180008888245E-001	3,513217304619815E-003
1,377169489860535E-001	3,737457289995902E-003
1,407190412282944E-001	3,862658773060614E-003
1,437063217163086E-001	3,991906390082386E-003
1,467020511627197E-001	4,114625142796695E-003
1,496776789426804E-001	4,090552354480484E-003
1,527094841003418E-001	4,174563528067679E-003
1,556818932294846E-001	4,115256844266300E-003
1,586893051862717E-001	4,253543874559305E-003
1,616978049278259E-001	4,367826668587677E-003
1,647094488143921E-001	4,477284948532348E-003
1,677137017250061E-001	4,622201624442837E-003
1,706563979387283E-001	4,739338958946383E-003
1,736807972192764E-001	4,629023107150326E-003
1,766404807567596E-001	4,739968696311658E-003
1,796585172414780E-001	4,716910808686713E-003
1,826850324869156E-001	4,781820532419573E-003
1,857136636972427E-001	4,880674936026091E-003
1,886892467737198E-001	5,069691572619689E-003
1,917168200016022E-001	5,136079518302326E-003
1,946521252393723E-001	5,265794605091086E-003
1,976881623268127E-001	5,261267106107009E-003
2,006807625293732E-001	5,282355030228969E-003
2,036308795213699E-001	5,266171124983704E-003
2,066733241081238E-001	5,286974466596615E-003
2,097263336181641E-001	5,436011640591078E-003
2,126955837011337E-001	5,674395997225981E-003
2,156785875558853E-001	5,654048160471992E-003
2,186934500932693E-001	5,790376770973063E-003
2,216828167438507E-001	5,778052277390894E-003
2,246541678905487E-001	5,656408901106483E-003
2,276955395936966E-001	5,812202038214309E-003
2,306923568248749E-001	5,862990202634463E-003
2,337008565664291E-001	5,912276651441908E-003
2,367273420095444E-001	6,115874664828873E-003
2,397051006555557E-001	6,170519967579627E-003
2,426785230636597E-001	6,287607967452577E-003
2,457177937030792E-001	6,293182107280415E-003
2,486891001462936E-001	6,298721037536689E-003
2,516848742961884E-001	6,328120637287327E-003
2,546519637107849E-001	6,393010916023456E-003
2,576859593391418E-001	6,541848799921965E-003
2,606848776340485E-001	6,632186018477031E-003
2,636562287807465E-001	6,724677136743511E-003
2,666763663291931E-001	6,873610678869449E-003
2,696689367294312E-001	6,870430769292113E-003
2,726498544216156E-001	6,917933329936621E-003
2,756911814212799E-001	6,810405658244367E-003
2,786912024021149E-001	7,047368348948008E-003
2,816848158836365E-001	7,079060337774640E-003
2,846774160861969E-001	7,293481492524755E-003
2,876593172550201E-001	7,411435482936241E-003
2,906869351863861E-001	7,430712312472887E-003
2,936858534812927E-001	7,530820593577420E-003
2,966604232788086E-001	7,531971633094749E-003
2,996847629547119E-001	7,578625329592316E-003
3,027091920375824E-001	7,716232859012177E-003
3,056826591491699E-001	7,757591044840730E-003
3,086625039577484E-001	7,976846513176705E-003
3,116847872734070E-001	8,171116061728573E-003
3,146189749240875E-001	8,100533175618568E-003
3,176582455635071E-001	8,209416715544676E-003
3,206741511821747E-001	8,256801601318295E-003
3,236359655857086E-001	8,322951508388451E-003
3,266815245151520E-001	8,427362632776075E-003
3,296581804752350E-001	8,548033646851180E-003
3,326582014560699E-001	8,727630797592562E-003
3,357101976871490E-001	8,922870894214924E-003
3,386634588241577E-001	8,998547295050258E-003
3,416857421398163E-001	8,953787637842187E-003
3,446847200393677E-001	9,116837522014989E-003
3,476709425449371E-001	9,073095090570915E-003
3,506263494491577E-001	9,218138061340975E-003
3,536284565925598E-001	9,363902050406797E-003
3,566889166831970E-001	9,502563623148871E-003
3,596730232238770E-001	9,653668545070104E-003
3,626666665077209E-001	9,734963264135296E-003
3,630612492561340E-001	2,351028463348538E-003
3,596147000789642E-001	2,193330617678339E-003
3,566284775733948E-001	-2,363543160489200E-004
3,537091016769409E-001	-9,387078143971607E-005
3,506804406642914E-001	-4,696861881509709E-004
3,477217853069305E-001	-7,871461191623682E-004
3,446826040744781E-001	-1,079199716312156E-003
3,416932225227356E-001	-1,246085129120425E-003
3,387091159820557E-001	-1,604259568011907E-003
3,356846868991852E-001	-1,802703976055545E-003
3,326804935932159E-001	-2,077320100599720E-003
3,296698927879334E-001	-2,121051911672112E-003
3,266910910606384E-001	-2,106668679819745E-003
3,236603438854218E-001	-2,315678207499627E-003
3,206794261932373E-001	-2,391069864744261E-003
3,176645934581757E-001	-2,526636619424802E-003
3,146508336067200E-001	-2,751208987117719E-003
3,116593062877655E-001	-2,796907425969631E-003
3,086741268634796E-001	-3,076552803880361E-003
3,056911528110504E-001	-3,066380584641600E-003
3,026943504810333E-001	-3,125798838583344E-003
2,997112870216370E-001	-3,137163314628794E-003
2,967059910297394E-001	-3,223011982198735E-003
2,937176823616028E-001	-3,298803246151580E-003
2,906932830810547E-001	-3,411986084958893E-003
2,876837551593781E-001	-3,501456771927119E-003
2,846943438053131E-001	-3,698489949682783E-003
2,816847860813141E-001	-3,793460870939361E-003
2,787134945392609E-001	-3,735499828205008E-003
2,757145464420319E-001	-3,591300542716946E-003
2,727187871932983E-001	-3,853846614219936E-003
2,696954309940338E-001	-3,821818906645694E-003
2,666848599910736E-001	-3,998229905038078E-003
2,636328637599945E-001	-4,092988541136319E-003
2,607400119304657E-001	-4,145785412321037E-003
2,577198743820190E-001	-4,240078877450685E-003
2,547029256820679E-001	-4,264624048422150E-003
2,517124712467194E-001	-4,159756344759222E-003
2,487347573041916E-001	-4,335645561594792E-003
2,456933706998825E-001	-4,280984855641778E-003
2,427135556936264E-001	-4,451367981851515E-003
2,396700680255890E-001	-4,553232445485049E-003
2,367315888404846E-001	-4,618350718778363E-003
2,337559908628464E-001	-4,670532358027717E-003
2,307581454515457E-001	-4,717033860894532E-003
2,276817560195923E-001	-4,586584739121866E-003
2,246838659048080E-001	-4,633188675749488E-003
2,217231392860413E-001	-4,728005533656335E-003
2,187029719352722E-001	-4,851726765789644E-003
2,157263457775116E-001	-4,980736072159042E-003
2,127432972192764E-001	-5,126814949310041E-003
2,097146809101105E-001	-5,045937525816654E-003
2,067072540521622E-001	-5,082298172459955E-003
2,036955952644348E-001	-5,017432687762058E-003
2,006934732198715E-001	-5,051365238614380E-003
1,977327466011047E-001	-5,201843997686698E-003
1,947136372327805E-001	-5,228990600800072E-003
1,916616708040237E-001	-5,372124739450403E-003
1,887083500623703E-001	-5,480653103101439E-003
1,857645660638809E-001	-5,371399729483525E-003
1,826988309621811E-001	-5,535275059325301E-003
1,796956360340118E-001	-5,460027102041402E-003
1,766776144504547E-001	-5,430630774046381E-003
1,737168729305267E-001	-5,531987440109395E-003
1,707052141427994E-001	-5,627648127604801E-003
1,676850467920303E-001	-5,782465061201919E-003
1,646797508001328E-001	-5,854349924548918E-003
1,616691499948502E-001	-5,868733280901019E-003
1,587444692850113E-001	-5,856601231951364E-003
1,557275056838989E-001	-5,841682137138877E-003
1,526797711849213E-001	-5,861644608456909E-003
1,496904045343399E-001	-5,917878227693199E-003
1,467020511627197E-001	-6,094041206476206E-003
1,437084376811981E-001	-6,127545775800367E-003
1,406808495521545E-001	-6,265553117878436E-003
1,376713365316391E-001	-6,245354984356591E-003
1,347180008888245E-001	-6,109034643789816E-003
1,317137628793716E-001	-6,204824230533409E-003
1,286999732255936E-001	-6,267949513130571E-003
1,256883144378662E-001	-6,264539813047205E-003
1,226405948400497E-001	-6,460219698055866E-003
1,197042390704155E-001	-6,519106053423832E-003
1,166862174868584E-001	-6,641092322145901E-003
1,137222871184349E-001	-6,621868627310790E-003
1,107021346688271E-001	-6,633275819897061E-003
1,077169999480248E-001	-6,637357164840439E-003
1,047265529632568E-001	-6,653834574131498E-003
1,017562597990036E-001	-6,747583393007511E-003
9,868413209915161E-002	-6,800256403948851E-003
9,575308859348297E-002	-6,885638272554673E-003
9,270112216472626E-002	-7,013294771443052E-003
8,971916139125824E-002	-6,955742019070149E-003
8,671067655086517E-002	-7,009387961766644E-003
8,377538621425629E-002	-6,877702940578767E-003
8,072553575038910E-002	-7,058365071619249E-003
7,770644873380661E-002	-7,063037640667361E-003
7,467568665742874E-002	-7,200028172115264E-003
7,173191010951996E-002	-7,312264898145154E-003
6,875207275152206E-002	-7,328657106376743E-003
6,567570567131042E-002	-7,434562654250618E-003
6,332283467054367E-002	-7,234296295791864E-003
6,362938880920410E-002	4,685064799995670E-004
6,685745716094971E-002	-1,639564403490101E-003
6,995929777622223E-002	5,245770874530032E-004
7,287017256021500E-002	8,939781412209448E-004
7,589775323867798E-002	6,455502343922278E-004
7,891472429037094E-002	9,336935786955630E-004
8,193062245845795E-002	1,186671808176878E-003
8,489561080932617E-002	1,441491113028964E-003
8,788500726222992E-002	1,672343561444403E-003
9,091257303953171E-002	1,901186882403434E-003
9,389664977788925E-002	2,044818193806149E-003
9,692423045635223E-002	1,994276022641225E-003
9,987968206405640E-002	2,191556780518203E-003
1,028839126229286E-001	2,235751888899063E-003
1,058902665972710E-001	2,366817826138401E-003
1,089136078953743E-001	2,537517983000736E-003
1,118488758802414E-001	2,687287792569916E-003
1,148934364318848E-001	2,857052261283068E-003
1,178828179836273E-001	2,989391738083224E-003
1,209390386939049E-001	3,037631460554416E-003
1,238743066787720E-001	3,096568668600728E-003
1,268711388111115E-001	3,102220801843544E-003
1,299411505460739E-001	3,120102302192340E-003
1,329496204853058E-001	3,341077505360272E-003
1,358795911073685E-001	3,516358266400257E-003
1,389071792364120E-001	3,583710003416257E-003
1,419124752283096E-001	3,699722497508967E-003
1,448880732059479E-001	3,795269913300411E-003
1,478933691978455E-001	3,629977763517270E-003
1,509124487638474E-001	3,822817831759390E-003
1,538615226745605E-001	3,825843679806006E-003
1,568753123283386E-001	3,959068856299083E-003
1,599272936582565E-001	4,116001367947320E-003
1,628530174493790E-001	4,259482125942474E-003
1,658975630998611E-001	4,337636123737970E-003
1,689113527536392E-001	4,330673592549933E-003
1,718667894601822E-001	4,371041744889226E-003
1,748551130294800E-001	4,383658195163467E-003
1,778784543275833E-001	4,410990424528603E-003
1,808826774358749E-001	4,502052932770723E-003
1,839261800050735E-001	4,781953197784322E-003
1,868360042572021E-001	4,812055101663451E-003
1,898943483829498E-001	4,828096970514825E-003
1,928667426109314E-001	4,906194571554390E-003
1,958529651165009E-001	4,889047074458280E-003
1,989155411720276E-001	4,837694563725070E-003
2,018667459487915E-001	4,964658069689515E-003
2,048741877079010E-001	5,069153833675186E-003
2,079197615385056E-001	5,231579323460933E-003
2,109176516532898E-001	5,382597609746492E-003
2,138698846101761E-001	5,337415702848002E-003
2,168423235416412E-001	5,439044767829013E-003
2,199102044105530E-001	5,413058339602012E-003
2,229112535715103E-001	5,407052440407109E-003
2,258910685777664E-001	5,536928141534905E-003
2,289123088121414E-001	5,616003847131262E-003
2,319070100784302E-001	5,746774387161096E-003
2,349239736795425E-001	5,908326117706683E-003
2,378603070974350E-001	5,856648275463769E-003
2,408751547336578E-001	5,918850126262372E-003
2,438602894544601E-001	5,949150291093663E-003
2,468910217285156E-001	5,951797790556976E-003
2,499366551637650E-001	6,011028746999951E-003
2,529037594795227E-001	6,172405465299062E-003
2,559270858764648E-001	6,304613955257499E-003
2,588719129562378E-001	6,464133642212919E-003
2,619217932224274E-001	6,464465832929506E-003
2,648634314537048E-001	6,479029543697858E-003
2,678899765014648E-001	6,578805528180173E-003
2,708771824836731E-001	6,566554734793804E-003
2,739026546478271E-001	6,629054355774648E-003
2,768485248088837E-001	6,803476940856673E-003
2,798835635185242E-001	6,874804233019755E-003
2,828973531723022E-001	7,122095041672258E-003
2,859068810939789E-001	7,123694175081491E-003
2,888761162757874E-001	7,067952113478285E-003
2,918612658977509E-001	7,222452854572750E-003
2,949047684669495E-001	7,188942848895562E-003
2,978813648223877E-001	7,246612496803417E-003
3,009503483772278E-001	7,484397633460413E-003
3,038888275623322E-001	7,573290085727241E-003
3,069047629833221E-001	7,734409433194561E-003
3,098325431346893E-001	7,842583213965165E-003
3,128696978092194E-001	7,880523260812178E-003
3,158781826496124E-001	7,896123399809281E-003
3,188431859016418E-001	8,016675583753061E-003
3,218845427036285E-001	8,070999121021827E-003
3,248526751995087E-001	8,215589244274388E-003
3,278569281101227E-001	8,361349133742313E-003
3,309036195278168E-001	8,513857080995696E-003
3,338696658611298E-001	8,669896450656883E-003
3,368600606918335E-001	8,678339445193891E-003
3,398791849613190E-001	8,592154677899103E-003
3,428717553615570E-001	8,843318479193854E-003
3,459036350250244E-001	8,842172124584803E-003
3,488897681236267E-001	9,047401916177505E-003
3,518685400485992E-001	9,190186780567003E-003
3,548494577407837E-001	9,257892271206339E-003
3,578600883483887E-001	9,438904754966268E-003
3,608600795269012E-001	9,449195065018217E-003
3,632438182830811E-001	9,524725377559662E-003
3,608261048793793E-001	1,783400663018493E-004
3,576892316341400E-001	1,190224771107756E-003
3,546765446662903E-001	-3,370479560310764E-004
3,516903519630432E-001	-6,021511601122459E-004
3,486733734607697E-001	-8,985887243397883E-004
3,457422852516174E-001	-1,244894883307597E-003
3,426913917064667E-001	-1,417840909198272E-003
3,396670520305634E-001	-1,491350908509043E-003
3,367041647434235E-001	-1,802067366952549E-003
3,336648941040039E-001	-1,913881483435236E-003
3,306755125522614E-001	-2,224492225448356E-003
3,276692032814026E-001	-2,387520391494031E-003
3,246628344058990E-001	-2,487467740744841E-003
3,216681182384491E-001	-2,631878808945963E-003
3,186978399753571E-001	-2,714779631383446E-003
3,157318234443665E-001	-2,781238344646712E-003
3,126936256885529E-001	-2,901986914568820E-003
3,096830248832703E-001	-2,874946386428837E-003
3,066692054271698E-001	-3,157814084463289E-003
3,036798238754272E-001	-3,313480021461146E-003
3,007169961929321E-001	-3,328335710749434E-003
2,977021038532257E-001	-3,392856191163036E-003
2,946999967098236E-001	-3,439258349721447E-003
2,917477190494537E-001	-3,464044033535174E-003
2,887138128280640E-001	-3,490994275731883E-003
2,857095897197723E-001	-3,645224333821605E-003
2,826830446720123E-001	-3,759459403833390E-003
2,797148525714874E-001	-3,894566622370282E-003
2,766777873039246E-001	-3,978291565241897E-003
2,737021744251251E-001	-3,976503218533808E-003
2,706990242004395E-001	-4,038254837925880E-003
2,676798701286316E-001	-3,978755162986763E-003
2,646830976009369E-001	-4,066052016342941E-003
2,617053687572479E-001	-4,185870252210084E-003
2,586756944656372E-001	-4,272902675034440E-003
2,556862831115723E-001	-4,368526007359215E-003
2,526905238628387E-001	-4,432788096487936E-003
2,497287392616272E-001	-4,412827006793414E-003
2,466947734355927E-001	-4,469322079482172E-003
2,437446862459183E-001	-4,490272003345619E-003
2,406767457723618E-001	-4,456468821445000E-003
2,376757413148880E-001	-4,575805814965861E-003
2,347276955842972E-001	-4,758342713709375E-003
2,317213565111160E-001	-4,773084693927870E-003
2,286683022975922E-001	-4,961139146164174E-003
2,257266640663147E-001	-4,944647751674171E-003
2,227256149053574E-001	-4,894579485456532E-003
2,197022736072540E-001	-4,900314706497322E-003
2,167256325483322E-001	-4,937190386246765E-003
2,137139588594437E-001	-4,981185422366252E-003
2,107267081737518E-001	-5,115848075850714E-003
2,077160924673080E-001	-5,229588546272774E-003
2,046789824962616E-001	-5,333387682185275E-003
2,017298936843872E-001	-5,344770083158631E-003
1,987182497978210E-001	-5,177398162939207E-003
1,957044452428818E-001	-5,266286811497052E-003
1,927256882190704E-001	-5,296812733932788E-003
1,897224932909012E-001	-5,386474469560178E-003
1,866853684186935E-001	-5,511131415308526E-003
1,837150752544403E-001	-5,593165654216921E-003
1,807278096675873E-001	-5,678328157551309E-003
1,777161657810211E-001	-5,747982945144420E-003
1,746705472469330E-001	-5,654907811226101E-003
1,716832816600800E-001	-5,658237993985557E-003
1,686843335628510E-001	-5,735060113187890E-003
1,656949669122696E-001	-5,736669992378020E-003
1,626832783222198E-001	-5,885194521397352E-003
1,597013473510742E-001	-5,951762803710556E-003
1,567395329475403E-001	-6,068339674837046E-003
1,537119746208191E-001	-6,019325449516226E-003
1,507193893194199E-001	-6,070797522018764E-003
1,477193981409073E-001	-5,992657796822537E-003
1,447066664695740E-001	-6,100501424144667E-003
1,417045593261719E-001	-6,102386786854652E-003
1,387151628732681E-001	-6,240530507461185E-003
1,356854736804962E-001	-6,385816892563720E-003
1,327045708894730E-001	-6,350580955768216E-003
1,297459453344345E-001	-6,455980823375264E-003
1,267395913600922E-001	-6,484943620711794E-003
1,237045750021935E-001	-6,381515701731483E-003
1,207109540700912E-001	-6,501037226472446E-003
1,176855042576790E-001	-6,512909347899651E-003
1,147162765264511E-001	-6,643851401652946E-003
1,117141768336296E-001	-6,788503204410934E-003
1,087194681167603E-001	-6,751603309466073E-003
1,057078167796135E-001	-6,827411933449573E-003
1,026961430907249E-001	-6,763474979379656E-003
9,971630573272705E-002	-6,813440951696553E-003
9,671313315629959E-002	-6,763729622131578E-003
9,371207654476166E-002	-6,890332112460637E-003
9,071632474660873E-002	-7,010785146525853E-003
8,772481232881546E-002	-7,133744419762583E-003
8,471102267503738E-002	-7,209802563819607E-003
8,172800391912460E-002	-7,131212015843220E-003
7,874074578285217E-002	-7,198160907945672E-003
7,572908699512482E-002	-7,162749667461138E-003
7,269938290119171E-002	-7,223835908613779E-003
6,975031644105911E-002	-7,338702090540522E-003
6,670363992452621E-002	-7,368894368280754E-003
6,373813003301620E-002	-7,463372074198574E-003
6,317007541656494E-002	-7,026870734989643E-003
6,583376973867416E-002	1,334628937658844E-003
6,882210075855255E-002	-5,943449342314337E-004
7,197272032499313E-002	1,913315032437731E-004
7,490588724613190E-002	9,884324388925371E-004
7,786238938570023E-002	1,070236705143342E-003
8,090268820524216E-002	1,081673641995927E-003
8,390162885189056E-002	1,212226821331170E-003
8,691329509019852E-002	1,464948611404305E-003
8,991435170173645E-002	1,575310679577856E-003
9,291327744722366E-002	1,762408395027004E-003
9,592388570308685E-002	2,002734618347150E-003
9,894721210002899E-002	2,134046446776165E-003
1,018803790211678E-001	2,326280134891738E-003
1,048729494214058E-001	2,389465313374084E-003
1,079058200120926E-001	2,440211162037385E-003
1,108930855989456E-001	2,521299032701393E-003
1,138548925518990E-001	2,600013592301484E-003
1,169026196002960E-001	2,736394029044385E-003
1,199005022644997E-001	2,972612150390186E-003
1,228782087564468E-001	3,027363396338644E-003
1,258856207132339E-001	3,146205600084318E-003
1,288940906524658E-001	3,340649619025908E-003
1,318941116333008E-001	3,186324233764845E-003
1,349174231290817E-001	3,198328823701670E-003
1,378803104162216E-001	3,417963722313289E-003
1,408961862325668E-001	3,459953342624236E-003
1,438951492309570E-001	3,653173504668913E-003
1,469195187091827E-001	3,837910405006063E-003
1,498887687921524E-001	3,807352288883237E-003
1,528791934251785E-001	3,906542441755948E-003
1,558569371700287E-001	3,918239444626832E-003
1,588887572288513E-001	3,899970929018726E-003
1,618611514568329E-001	4,068039409402351E-003
1,648823618888855E-001	4,081787577888470E-003
1,678950935602188E-001	4,204447844434393E-003
1,708876788616180E-001	4,391976905026240E-003
1,738897711038589E-001	4,404362201765065E-003
1,768462806940079E-001	4,443840461236623E-003
1,798664182424545E-001	4,533556955316806E-003
1,828643083572388E-001	4,394230330540809E-003
1,858886927366257E-001	4,537051829376873E-003
1,888876408338547E-001	4,675996565007778E-003
1,919098943471909E-001	4,861781874448478E-003
1,949152052402496E-001	4,927048786662960E-003
1,978929191827774E-001	5,013053166799675E-003
2,008823007345200E-001	4,985576067459377E-003
2,038483470678329E-001	5,010108876174667E-003
2,068632096052170E-001	5,030166861009405E-003
2,098716795444489E-001	5,089992190429876E-003
2,128950059413910E-001	5,212727190761768E-003
2,158833444118500E-001	5,321336243570021E-003
2,189013361930847E-001	5,455707714847671E-003
2,218907624483109E-001	5,547291987265161E-003
2,248907238245010E-001	5,433916303445599E-003
2,279225736856461E-001	5,550680540990366E-003
2,309087514877319E-001	5,615982653883612E-003
2,339066565036774E-001	5,613476656435523E-003
2,369076907634735E-001	5,745313658230285E-003
2,398907095193863E-001	5,855345028572240E-003
2,429235875606537E-001	6,038812024295733E-003
2,459235936403275E-001	6,079975651826122E-003
2,488864362239838E-001	6,077080561630699E-003
2,519182562828064E-001	6,102874610304662E-003
2,548927962779999E-001	6,109888197291506E-003
2,578949034214020E-001	6,242141165178832E-003
2,609140276908875E-001	6,287738744302079E-003
2,639001905918121E-001	6,483420829479468E-003
2,668927907943726E-001	6,575873195591483E-003
2,699320316314697E-001	6,667252264176388E-003
2,728885412216187E-001	6,702125511057838E-003
2,758959531784058E-001	6,592490143601838E-003
2,788715660572052E-001	6,756597108000695E-003
2,818694114685059E-001	6,823448651428199E-003
2,849033772945404E-001	6,893515231947978E-003
2,879245281219482E-001	7,142238430484837E-003
2,908990681171417E-001	7,169061487527661E-003
2,938661873340607E-001	7,344294365288486E-003
2,968874275684357E-001	7,353372126494312E-003
2,998587787151337E-001	7,381763697291426E-003
3,028894960880280E-001	7,497491604024437E-003
3,058746755123138E-001	7,521405238447992E-003
3,088672161102295E-001	7,684147059383903E-003
3,118810653686523E-001	7,843448223866317E-003
3,148279786109924E-001	7,942435707567141E-003
3,178608417510986E-001	8,017756730421599E-003
3,208810091018677E-001	8,090949718381250E-003
3,238438963890076E-001	8,161985162587398E-003
3,268820643424988E-001	8,109533176240007E-003
3,298735320568085E-001	8,309705081855009E-003
3,328459560871124E-001	8,437047482099530E-003
3,358894884586334E-001	8,625448497898355E-003
3,388852179050446E-001	8,775299464307208E-003
3,418247103691101E-001	8,735384634443732E-003
3,448512256145477E-001	8,938732479388568E-003
3,478470146656036E-001	8,906464845090875E-003
3,509000539779663E-001	9,004183287389556E-003
3,538469672203064E-001	9,201307171477130E-003
3,568734824657440E-001	9,214802068729322E-003
3,598576188087463E-001	9,444063275522163E-003
3,628045618534088E-001	9,603798587704715E-003
3,614541590213776E-001	2,657049852789195E-003
3,587394952774048E-001	-2,771520534439422E-004
3,557023406028748E-001	3,874539444268538E-004
3,526386618614197E-001	-4,030699801534051E-004
3,496779799461365E-001	-8,345386191245356E-004
3,466631174087524E-001	-1,080135241308092E-003
3,436790406703949E-001	-1,449368182976386E-003
3,406684100627899E-001	-1,718250650709602E-003
3,376684486865997E-001	-1,814862502518118E-003
3,346928656101227E-001	-2,011865771136295E-003
3,316567838191986E-001	-2,053238436524725E-003
3,286864757537842E-001	-2,211132754180452E-003
3,256992101669312E-001	-2,483585844149472E-003
3,226918280124664E-001	-2,592257281018338E-003
3,196759223937988E-001	-2,779126884585519E-003
3,166684806346893E-001	-2,911117683349094E-003
3,137331902980804E-001	-2,857906813207786E-003
3,106887638568878E-001	-3,185896717792337E-003
3,076929152011871E-001	-2,960360094018833E-003
3,046833574771881E-001	-3,138820370925999E-003
3,017278909683228E-001	-3,245862906421975E-003
2,987257838249207E-001	-3,369098064164665E-003
2,957215905189514E-001	-3,518779416481245E-003
2,926950752735138E-001	-3,602958831632141E-003
2,896865606307983E-001	-3,701565359329417E-003
2,867183983325958E-001	-3,696780034564043E-003
2,837046384811401E-001	-3,685053005230848E-003
2,806908488273621E-001	-3,661275193533362E-003
2,776961326599121E-001	-3,823925189458857E-003
2,746823728084564E-001	-4,042384145981875E-003
2,716929912567139E-001	-4,061139284506972E-003
2,687056958675385E-001	-4,206080922206926E-003
2,657089233398438E-001	-4,223067754436573E-003
2,627237439155579E-001	-4,119738850729616E-003
2,597067952156067E-001	-4,248228302862506E-003
2,567407488822937E-001	-4,189490733551765E-003
2,536834776401520E-001	-4,297053052141564E-003
2,507046759128571E-001	-4,425719694457556E-003
2,477163672447205E-001	-4,503438389090453E-003
2,447036355733871E-001	-4,681447610184672E-003
2,417333424091339E-001	-4,659822250687267E-003
2,387089729309082E-001	-4,644031362355833E-003
2,357376068830490E-001	-4,664208427129765E-003
2,327535301446915E-001	-4,647960900506892E-003
2,296686470508575E-001	-4,665932656886661E-003
2,266527861356735E-001	-4,875600300389710E-003
2,236973196268082E-001	-4,965008663324017E-003
2,206909507513046E-001	-5,055620172950276E-003
2,176899015903473E-001	-5,106535212285539E-003
2,147037088871002E-001	-5,083055248380526E-003
2,116973549127579E-001	-4,950605802150653E-003
2,087121903896332E-001	-5,071184535659572E-003
2,056888788938522E-001	-5,162022230554911E-003
2,027047872543335E-001	-5,248304357842730E-003
1,996878385543823E-001	-5,424041591646139E-003
1,966803818941116E-001	-5,395927365397131E-003
1,936973929405212E-001	-5,489025202728530E-003
1,907079815864563E-001	-5,452560439557066E-003
1,877154409885406E-001	-5,470583177763399E-003
1,847270876169205E-001	-5,538716938139645E-003
1,816995292901993E-001	-5,506875007591172E-003
1,787239313125610E-001	-5,611273448367760E-003
1,756846904754639E-001	-5,775477839455943E-003
1,727186292409897E-001	-5,790287440807604E-003
1,696931719779968E-001	-5,838039018271957E-003
1,666910648345947E-001	-5,834121888458152E-003
1,637080311775208E-001	-5,826098189572790E-003
1,606868505477905E-001	-5,772752813047399E-003
1,577069908380508E-001	-5,959417067869136E-003
1,547038108110428E-001	-5,958472493754613E-003
1,516772955656052E-001	-6,125651426878473E-003
1,487133949995041E-001	-6,284443688653258E-003
1,457186788320541E-001	-6,186588996772296E-003
1,427070349454880E-001	-6,198616660791818E-003
1,397218853235245E-001	-6,155794098352374E-003
1,367388665676117E-001	-6,182807965766775E-003
1,337229460477829E-001	-6,385655710295791E-003
1,306911408901215E-001	-6,389136362688272E-003
1,276370435953140E-001	-6,521624213039298E-003
1,246943250298500E-001	-6,681481492705636E-003
1,216816157102585E-001	-6,492033602019846E-003
1,187091916799545E-001	-6,565090796761458E-003
1,156954094767571E-001	-6,566142829089780E-003
1,127410307526588E-001	-6,595422540865694E-003
1,096688956022263E-001	-6,639912750364987E-003
1,067251339554787E-001	-6,800707242493653E-003
1,036858856678009E-001	-6,858523737416050E-003
1,007092297077179E-001	-6,910822179229878E-003
9,773894399404526E-002	-6,999224590092321E-003
9,474638104438782E-002	-6,977091559949440E-003
9,175273776054382E-002	-6,951750599303835E-003
8,877078443765640E-002	-6,950286307579108E-003
8,569016307592392E-002	-7,053880397304743E-003
8,266682922840118E-002	-7,227756750782841E-003
7,974958419799805E-002	-7,250338755208436E-003
7,667108625173569E-002	-7,374578498759832E-003
7,368912547826767E-002	-7,418356260637249E-003
7,071777433156967E-002	-7,211233367140954E-003
6,770823895931244E-002	-7,368096770126897E-003
6,472097337245941E-002	-7,342679755108994E-003
6,328464299440384E-002	-7,378246169537306E-003
6,501270085573196E-002	-2,662640340380072E-003
6,794586032629013E-002	9,256999268340352E-004
7,082597911357880E-002	2,002147397964433E-004
7,391189783811569E-002	1,642432450353524E-004
7,692568004131317E-002	8,649374301007338E-004
7,991401106119156E-002	1,165725619001835E-003
8,294688910245895E-002	1,333095636558333E-003
8,590233325958252E-002	1,439197322017412E-003
8,890231698751450E-002	1,648926751436703E-003
9,189170598983765E-002	1,715256432463421E-003
9,491080045700073E-002	1,799727598053226E-003
9,786412119865417E-002	2,061491668023850E-003
1,008991152048111E-001	2,123684835169124E-003
1,038895621895790E-001	2,295178971002725E-003
1,069012284278870E-001	2,472583688359016E-003
1,099044084548950E-001	2,545412497460771E-003
1,128715202212334E-001	2,662652417307590E-003
1,158916726708412E-001	2,691979576411544E-003
1,188778653740883E-001	2,778454387427902E-003
1,218555942177773E-001	2,851380903141236E-003
1,248842030763626E-001	3,002188633521056E-003
1,278757154941559E-001	3,132946939230261E-003
1,308767795562744E-001	3,426608049267088E-003
1,338863074779511E-001	3,447338579563725E-003
1,369096487760544E-001	3,364397375763571E-003
1,398693174123764E-001	3,509107428625514E-003
1,428597867488861E-001	3,501255095114997E-003
1,458884179592133E-001	3,528896850790872E-003
1,488841772079468E-001	3,755326148772550E-003
1,518693119287491E-001	3,839146578684452E-003
1,549000740051270E-001	3,917624079298951E-003
1,578937023878098E-001	4,032471134349992E-003
1,608544439077377E-001	3,958446281305664E-003
1,638671606779099E-001	4,076812879551072E-003
1,668820232152939E-001	4,084771120283742E-003
1,698872894048691E-001	4,148177497780958E-003
1,728767007589340E-001	4,294323443092357E-003
1,758045554161072E-001	4,414614012299978E-003
1,788894236087799E-001	4,552761292466651E-003
1,818597018718719E-001	4,689113386120894E-003
1,848671287298203E-001	4,634760017830170E-003
1,878809183835983E-001	4,633048196410569E-003
1,908607482910156E-001	4,677883637567826E-003
1,938692480325699E-001	4,684227116538556E-003
1,968808919191360E-001	4,802372204317694E-003
1,998628526926041E-001	4,996292846852983E-003
2,028723955154419E-001	5,094526788323287E-003
2,058872431516647E-001	5,179047391720829E-003
2,089275568723679E-001	5,183696656280934E-003
2,118914872407913E-001	5,081263016715347E-003
2,148628234863281E-001	5,216271097904422E-003
2,178850919008255E-001	5,217116651894893E-003
2,208903878927231E-001	5,397428469020998E-003
2,238702327013016E-001	5,474758182875433E-003
2,268882691860199E-001	5,568345906390791E-003
2,298744767904282E-001	5,696989441882280E-003
2,329009771347046E-001	5,755828832156515E-003
2,359094619750977E-001	5,671115628501890E-003
2,388882488012314E-001	5,774424862870066E-003
2,418977618217468E-001	5,799523853460817E-003
2,449136674404144E-001	5,907360451399473E-003
2,479253411293030E-001	6,042359482509939E-003
2,509104907512665E-001	6,111750427306946E-003
2,538351714611053E-001	6,223879675720474E-003
2,568521201610565E-001	6,232403619732305E-003
2,598659098148346E-001	6,236462300067733E-003
2,628701627254486E-001	6,244581681837936E-003
2,658425569534302E-001	6,370018637325232E-003
2,688987553119659E-001	6,472415363532519E-003
2,719061970710754E-001	6,621339949763064E-003
2,748945057392120E-001	6,821319371536246E-003
2,778786122798920E-001	6,789594346224087E-003
2,808647751808167E-001	6,919753120099764E-003
2,838701009750366E-001	6,919637887929458E-003
2,868849635124207E-001	6,925502463774269E-003
2,898764610290527E-001	7,045794376204451E-003
2,929050624370575E-001	7,170334694819758E-003
2,958880960941315E-001	7,305362260619140E-003
2,989018857479095E-001	7,444432644762078E-003
3,018997907638550E-001	7,384741853052740E-003
3,048753738403320E-001	7,662673728999744E-003
3,078891634941101E-001	7,527161727112902E-003
3,108744621276855E-001	7,722156754287890E-003
3,139443099498749E-001	7,709433046127562E-003
3,168138265609741E-001	7,937248100966521E-003
3,198764026165009E-001	8,030565326205580E-003
3,228997588157654E-001	8,208431854048570E-003
3,258796036243439E-001	8,306866662072365E-003
3,288551867008209E-001	8,297120622753756E-003
3,318147957324982E-001	8,366529596969527E-003
3,348646759986877E-001	8,410625284240206E-003
3,379113674163818E-001	8,537309394644907E-003
3,408678770065308E-001	8,765468550134589E-003
3,439018130302429E-001	8,819020301517551E-003
3,468646705150604E-001	8,995486270578140E-003
3,498763442039490E-001	9,052246602045164E-003
3,528615236282349E-001	9,053835741522374E-003
3,558381795883179E-001	9,220208641232297E-003
3,588752448558807E-001	9,211599643296944E-003
3,618349730968475E-001	9,377372448701286E-003
3,630231022834778E-001	2,130161113566627E-003
3,596019446849823E-001	1,938636935796642E-003
3,566613495349884E-001	-4,435776973473853E-004
3,537006080150604E-001	-3,212781614144594E-004
3,506719470024109E-001	-6,956098133438574E-004
3,476900160312653E-001	-1,045509506083259E-003
3,446677625179291E-001	-1,266633484394533E-003
3,416931927204132E-001	-1,468017124655793E-003
3,386603295803070E-001	-1,817308369835593E-003
3,356571197509766E-001	-1,964865988763140E-003
3,326263725757599E-001	-2,306008039441716E-003
3,296677768230438E-001	-2,302550529647198E-003
3,266879320144653E-001	-2,324750647555137E-003
3,236677646636963E-001	-2,500961497692807E-003
3,206826448440552E-001	-2,597606924407737E-003
3,177049160003662E-001	-2,713462035697167E-003
3,146794736385345E-001	-2,971607714951254E-003
3,116900622844696E-001	-3,015079460359019E-003
3,086741268634796E-001	-3,281174782589193E-003
3,056848049163818E-001	-3,211812084474425E-003
3,026805520057678E-001	-3,297034702174840E-003
2,996879518032074E-001	-3,342091106484681E-003
2,967208325862885E-001	-3,408150143513929E-003
2,937049865722656E-001	-3,457129039209882E-003
2,907039225101471E-001	-3,624757399746964E-003
2,877049744129181E-001	-3,691242801424872E-003
2,847144901752472E-001	-3,852972931983660E-003
2,817219793796539E-001	-3,952283728115916E-003
2,786752879619598E-001	-3,881943052975761E-003
2,756795585155487E-001	-3,799337623301337E-003
2,727071046829224E-001	-4,014165871113695E-003
2,696753144264221E-001	-3,989657904538830E-003
2,666625976562500E-001	-4,122002528876879E-003
2,636816799640656E-001	-4,300229667731175E-003
2,607272863388062E-001	-4,333756990995932E-003
2,577177584171295E-001	-4,339511569721947E-003
2,547029256820679E-001	-4,427475302185874E-003
2,517326176166534E-001	-4,339078494215033E-003
2,487252205610275E-001	-4,447360423202741E-003
2,457294315099716E-001	-4,482973241263385E-003
2,427528053522110E-001	-4,605297352100017E-003
2,397114336490631E-001	-4,731908492330034E-003
2,367262840270996E-001	-4,735132720573628E-003
2,336775064468384E-001	-4,832839406541695E-003
2,306976616382599E-001	-4,905438352984182E-003
2,277093231678009E-001	-4,743428839800688E-003
2,246881127357483E-001	-4,804364304517444E-003
2,216817736625671E-001	-4,901751124432627E-003
2,186743617057800E-001	-5,025730368490446E-003
2,156860232353210E-001	-5,128613711955655E-003
2,126807123422623E-001	-5,221633329913135E-003
2,097083181142807E-001	-5,207345836323735E-003
2,067220956087112E-001	-5,219352094071733E-003
2,036680281162262E-001	-5,175399468296538E-003
2,006881684064865E-001	-5,217477680465269E-003
1,977093964815140E-001	-5,296851961045624E-003
1,947348564863205E-001	-5,423549501655411E-003
1,917422860860825E-001	-5,520437215131485E-003
1,887263804674149E-001	-5,630359192259182E-003
1,856860667467117E-001	-5,475433997263376E-003
1,827051937580109E-001	-5,636683516058810E-003
1,797168552875519E-001	-5,620158404377018E-003
1,767189949750900E-001	-5,576343716610482E-003
1,736521571874619E-001	-5,631319752865224E-003
1,706797480583191E-001	-5,785291448976014E-003
1,676998883485794E-001	-5,870054390268491E-003
1,646946072578430E-001	-6,031796927547683E-003
1,617041677236557E-001	-5,988443296195725E-003
1,586999297142029E-001	-5,984787781118103E-003
1,556978076696396E-001	-5,923648743595931E-003
1,526882499456406E-001	-6,002741869451701E-003
1,497116088867188E-001	-6,018469199463833E-003
1,467275321483612E-001	-6,212895447889513E-003
1,436766237020493E-001	-6,273143457898775E-003
1,406681388616562E-001	-6,361729818308917E-003
1,377275437116623E-001	-6,364403735965892E-003
1,347285956144333E-001	-6,276331767973396E-003
1,317211836576462E-001	-6,366578698766223E-003
1,287201344966888E-001	-6,384267549340905E-003
1,257212013006210E-001	-6,328752366648045E-003
1,226724162697792E-001	-6,599603106830408E-003
1,196798384189606E-001	-6,589428686210236E-003
1,166978850960732E-001	-6,730975118747044E-003
1,137435138225555E-001	-6,722390766905513E-003
1,107138022780418E-001	-6,790918614165614E-003
1,077361032366753E-001	-6,727471632378496E-003
1,047042682766914E-001	-6,754737059155635E-003
1,017010957002640E-001	-6,817948651587358E-003
9,872974455356598E-002	-6,927276256141729E-003
9,572762995958328E-002	-6,998672854630628E-003
9,270218014717102E-002	-7,098538804711996E-003
8,969686925411224E-002	-7,102309211202539E-003
8,673931658267975E-002	-7,101308328856207E-003
8,367779105901718E-002	-6,952392772089117E-003
8,067461103200912E-002	-7,205475273318968E-003
7,771599292755127E-002	-7,155125735961415E-003
7,470221072435379E-002	-7,300037299298998E-003
7,169054448604584E-002	-7,422766749287907E-003
6,870328634977341E-002	-7,426912065259056E-003
6,572874635457993E-002	-7,505106878751444E-003
6,326554715633392E-002	-7,318463176488876E-003
6,359968334436417E-002	3,568941638213345E-004
6,685215979814529E-002	-1,734883566920566E-003
6,995929777622223E-002	3,951310727453982E-004
7,285426557064056E-002	8,249655784185166E-004
7,588820904493332E-002	5,114759976297348E-004
7,888820022344589E-002	8,162309040926690E-004
8,193062245845795E-002	1,126084435276828E-003
8,488819003105164E-002	1,395669070512270E-003
8,790515363216400E-002	1,494351852367504E-003
9,093166887760162E-002	1,780965503914763E-003
9,392742067575455E-002	1,926948851481335E-003
9,687225520610809E-002	1,886172273670023E-003
9,989877045154572E-002	2,094474488128779E-003
1,028987690806389E-001	2,144866233114356E-003
1,058796569705009E-001	2,298579751166274E-003
1,088934466242790E-001	2,452328944653144E-003
1,118605434894562E-001	2,569968283043865E-003
1,149167716503143E-001	2,793182554847194E-003
1,178976744413376E-001	2,898274629842500E-003
1,208796277642250E-001	2,925385922127249E-003
1,238743066787720E-001	2,986427491123322E-003
1,268605142831802E-001	3,024995351653278E-003
1,299071758985519E-001	2,990369828492288E-003
1,328997611999512E-001	3,268487461658285E-003
1,359135359525681E-001	3,451522848788760E-003
1,389230787754059E-001	3,550147233909229E-003
1,418817192316055E-001	3,539667136768301E-003
1,448615491390228E-001	3,687912635844760E-003
1,478519886732101E-001	3,603904815463480E-003
1,509135067462921E-001	3,692123416234004E-003
1,539113968610764E-001	3,700627938896008E-003
1,568774282932281E-001	3,886141190984446E-003
1,599177569150925E-001	4,007416612188938E-003
1,628954559564590E-001	4,160137985713339E-003
1,659092605113983E-001	4,211753783036148E-003
1,689007431268692E-001	4,257379765072608E-003
1,706734299659729E-001	4,356545861810446E-003