File: fig_si_ecsa/ZrO2/20.txt
C:\EC-lab data\Neethu\2024_10_01_Ni90Fe10_ZrO2\CV_ECSA\CV_ECSA_02_CV_C01.mpr
Ewe/V	<I>/mA
6,420119106769562E-002	-3,700117021799088E-002
6,685533374547958E-002	-3,316392583117181E-003
7,043877989053726E-002	-3,497270245066755E-003
7,341225445270538E-002	-2,982374135576213E-003
7,645680010318756E-002	-2,687625111051328E-003
7,942179590463638E-002	-2,377525472369336E-003
8,242072165012360E-002	-2,283360995702598E-003
8,539631962776184E-002	-2,050132749664724E-003
8,843131363391876E-002	-1,992060782632268E-003
9,143131226301193E-002	-1,800681162320770E-003
9,441328048706055E-002	-1,703554513142079E-003
9,741856902837753E-002	-1,639372275618636E-003
1,004228070378304E-001	-1,556458608724321E-003
1,034026369452477E-001	-1,487919823308332E-003
1,064015850424767E-001	-1,392614754877286E-003
1,093750521540642E-001	-1,396882826965242E-003
1,123814135789871E-001	-1,313768637879142E-003
1,154057979583740E-001	-1,255888244149562E-003
1,184057965874672E-001	-1,224246557049570E-003
1,214004829525948E-001	-1,178922603853774E-003
1,244100332260132E-001	-1,029509801204158E-003
1,274015456438065E-001	-1,086284975759483E-003
1,304121464490891E-001	-9,719241306474606E-004
1,334131956100464E-001	-1,023591162366860E-003
1,363739371299744E-001	-9,722188910717237E-004
1,394004523754120E-001	-9,429352981661131E-004
1,423824131488800E-001	-7,909287982901924E-004
1,454046964645386E-001	-8,698692456029543E-004
1,483802646398544E-001	-8,336265042422145E-004
1,513855904340744E-001	-7,684804550944207E-004
1,544089168310165E-001	-8,267705851620934E-004
1,573951095342636E-001	-7,788380380378407E-004
1,604088991880417E-001	-6,619954475581826E-004
1,634003967046738E-001	-7,086133958317219E-004
1,663558483123779E-001	-6,292838226255749E-004
1,693781018257141E-001	-5,766411378755488E-004
1,723876446485519E-001	-5,304800529470554E-004
1,753600686788559E-001	-6,196248191540875E-004
1,783749163150787E-001	-4,892383443870201E-004
1,813982576131821E-001	-5,542930291455739E-004
1,844099164009094E-001	-3,678683610309616E-004
1,874194443225861E-001	-4,565680385860988E-004
1,903908103704453E-001	-3,647557526467913E-004
1,933727711439133E-001	-3,764898507412264E-004
1,964364051818848E-001	-3,836022039683511E-004
1,993907839059830E-001	-2,506012918493737E-004
2,023663818836212E-001	-2,838050782648436E-004
2,053525745868683E-001	-2,670749610308152E-004
2,084586322307587E-001	-2,151603202609886E-004
2,114268690347672E-001	-1,048903482758312E-004
2,143546789884567E-001	-5,293179727166913E-005
2,173875570297241E-001	-5,049713725897896E-005
2,203886359930038E-001	-8,483573207300845E-005
2,234268188476563E-001	-1,574883014688586E-005
2,263748198747635E-001	-6,190404344389811E-005
2,293716073036194E-001	-1,637666309130113E-005
2,323843389749527E-001	6,847652487404422E-005
2,354119271039963E-001	8,087378433561726E-005
2,384246438741684E-001	1,606012267950942E-004
2,413938641548157E-001	2,099397455552843E-004
2,444129735231400E-001	2,944598374799366E-004
2,474066168069839E-001	3,069691013866695E-004
2,503927946090698E-001	2,676049870076348E-004
2,533917427062988E-001	2,630540168158612E-004
2,563821673393250E-001	3,700106567015998E-004
2,593577504158020E-001	4,229805016214630E-004
2,624288499355316E-001	5,156327992642290E-004
2,653991281986237E-001	4,921557987403180E-004
2,683354914188385E-001	5,236589150212235E-004
2,714203298091888E-001	6,280010723761116E-004
2,743746936321259E-001	5,427116409043289E-004
2,773725688457489E-001	6,749314435452363E-004
2,804203331470490E-001	6,901112156238350E-004
2,833969891071320E-001	7,725149685703166E-004
2,864181697368622E-001	8,320047255623419E-004
2,894181609153748E-001	8,953144783424259E-004
2,923874258995056E-001	9,374699108324995E-004
2,954054474830627E-001	9,196433546144883E-004
2,983948290348053E-001	1,023628787004752E-003
3,014372885227203E-001	1,106574881764235E-003
3,043842017650604E-001	1,093485033273373E-003
3,073778152465820E-001	1,230930813247468E-003
3,104023039340973E-001	1,229385474245590E-003
3,133778274059296E-001	1,238390912038557E-003
3,163428008556366E-001	1,355914430070652E-003
3,193576633930206E-001	1,376358403688379E-003
3,223342895507813E-001	1,396991036253223E-003
3,254340291023254E-001	1,519242355922972E-003
3,283459842205048E-001	1,570098830976953E-003
3,313512802124023E-001	1,558547506369402E-003
3,343703448772430E-001	1,668498775950829E-003
3,373979330062866E-001	1,710951830386026E-003
3,403883874416351E-001	1,786933067773201E-003
3,434488475322723E-001	1,831723530173156E-003
3,463989794254303E-001	1,847873096536480E-003
3,493947386741638E-001	1,958251638926503E-003
3,523809313774109E-001	2,036537767573334E-003
3,553533256053925E-001	2,032022192671071E-003
3,583490848541260E-001	2,141619784567780E-003
3,613819777965546E-001	2,237735310767743E-003
3,630910813808441E-001	1,850665834111472E-003
3,607217967510223E-001	3,325566728048193E-003
3,577688038349152E-001	3,059892771973327E-003
3,547295629978180E-001	2,853781791532971E-003
3,517306447029114E-001	2,757188633781711E-003
3,487444221973419E-001	2,576850527307037E-003
3,457837104797363E-001	2,447451469547733E-003
3,427667319774628E-001	2,363311429487820E-003
3,397911190986633E-001	2,266223254730863E-003
3,367826640605927E-001	2,265831192003298E-003
3,337603807449341E-001	2,133275323272010E-003
3,307646214962006E-001	2,037091863409531E-003
3,277190327644348E-001	1,957656304781532E-003
3,247593343257904E-001	1,895561004958935E-003
3,217731416225433E-001	1,920685635316964E-003
3,187572360038757E-001	1,885518825845256E-003
3,157636225223541E-001	1,795475019797001E-003
3,127636015415192E-001	1,813628787220765E-003
3,097423911094666E-001	1,686260547576996E-003
3,067403137683868E-001	1,704962596409974E-003
3,037816882133484E-001	1,611331662742382E-003
3,008177578449249E-001	1,464253488191188E-003
2,977816760540009E-001	1,602061755706756E-003
2,947869598865509E-001	1,477764869748543E-003
2,917785048484802E-001	1,530216000598252E-003
2,887933552265167E-001	1,406243343513712E-003
2,858209609985352E-001	1,380375882305353E-003
2,827742993831635E-001	1,382860636416190E-003
2,797679007053375E-001	1,326848956186615E-003
2,767573297023773E-001	1,342167294852616E-003
2,738040089607239E-001	1,373997508481904E-003
2,707838416099548E-001	1,268676722045506E-003
2,677562832832336E-001	1,220290218413913E-003
2,647933959960938E-001	1,191758233121447E-003
2,618231177330017E-001	1,232212894946213E-003
2,588125169277191E-001	1,168072009359427E-003
2,558146417140961E-001	1,106029631585076E-003
2,528008520603180E-001	1,160461462859533E-003
2,498083114624023E-001	1,094764232052346E-003
2,468008548021317E-001	1,060776385842205E-003
2,437881529331207E-001	1,047500750920096E-003
2,407966405153275E-001	1,027307362152085E-003
2,378093898296356E-001	9,719883030272648E-004
2,348168045282364E-001	9,739425412825971E-004
2,317892163991928E-001	9,426427681302370E-004
2,288030236959457E-001	8,465919861885551E-004
2,257510423660278E-001	8,218977345846000E-004
2,227775752544403E-001	9,273039279357230E-004
2,198147326707840E-001	8,321285655694256E-004
2,168009281158447E-001	8,576098319247605E-004
2,137945592403412E-001	7,165179891520275E-004
2,107988297939301E-001	7,192680791397975E-004
2,078189849853516E-001	7,535477256268470E-004
2,047913968563080E-001	7,025497433106546E-004
2,017606496810913E-001	6,330147632019750E-004
1,988041400909424E-001	6,591239453141648E-004
1,957712769508362E-001	6,659209053191686E-004
1,928147822618485E-001	6,421875003373625E-004
1,898052394390106E-001	5,360030848654196E-004
1,867765784263611E-001	5,282717957015848E-004
1,838020533323288E-001	5,485624456519486E-004
1,807904094457626E-001	5,128473693292567E-004
1,777925193309784E-001	4,689293905189361E-004
1,748222410678864E-001	5,064571800243427E-004
1,718392074108124E-001	3,802591917418698E-004
1,687798202037811E-001	4,582800160345931E-004
1,657660156488419E-001	2,896996130882853E-004
1,628073900938034E-001	3,768577428302335E-004
1,597946882247925E-001	2,510870959600586E-004
1,567936241626740E-001	3,320583877952981E-004
1,537756025791168E-001	2,405231953835718E-004
1,507650017738342E-001	2,558797614845530E-004
1,478116810321808E-001	1,974687873758669E-004
1,448159366846085E-001	1,677578081811318E-004
1,418116837739944E-001	1,802434913818840E-004
1,388053297996521E-001	1,903188442779717E-005
1,358074545860291E-001	4,331356260915188E-005
1,328127831220627E-001	-5,579905836872954E-006
1,298435479402542E-001	1,217891417213551E-005
1,268350630998611E-001	7,977142484534225E-005
1,237576305866241E-001	-6,877765059066935E-005
1,208011284470558E-001	-6,011784580813896E-005
1,178234145045280E-001	-7,859290765197701E-005
1,148149371147156E-001	-1,167308579165701E-004
1,117906942963600E-001	-1,675598759147958E-004
1,088244840502739E-001	-2,069927403075174E-004
1,057746335864067E-001	-2,897502526711493E-004
1,027788743376732E-001	-1,447440706585808E-004
9,980858862400055E-002	-2,670307678642892E-004
9,680541604757309E-002	-3,092775661773179E-004
9,379588067531586E-002	-2,933491708029552E-004
9,082876890897751E-002	-3,699257317748570E-004
8,779270946979523E-002	-3,764869069384624E-004
8,481605350971222E-002	-4,233583640808770E-004
8,179377764463425E-002	-5,133844628188752E-004
7,876408845186234E-002	-5,024815958744587E-004
7,584153115749359E-002	-5,132547634932230E-004
7,277470827102661E-002	-5,585964418438989E-004
6,981926411390305E-002	-5,512246905886461E-004
6,678425520658493E-002	-7,088462743501684E-004
6,375668942928314E-002	-6,142309121059970E-004
6,380124390125275E-002	-3,001397452357588E-003
6,682987511157990E-002	-2,659358318198798E-003
6,981395930051804E-002	-2,479842563304739E-003
7,281076908111572E-002	-2,407015235500388E-003
7,580970227718353E-002	-2,208258306718894E-003
7,885637134313583E-002	-2,076784204459895E-003
8,179483562707901E-002	-2,053958602691302E-003
8,481923490762711E-002	-1,980556429569125E-003
8,781922608613968E-002	-1,838506587824258E-003
9,081921726465225E-002	-1,817988982987087E-003
9,382345527410507E-002	-1,743416729709676E-003
9,683723747730255E-002	-1,756173571047165E-003
9,981813281774521E-002	-1,620272344174136E-003
1,028287410736084E-001	-1,572277935927693E-003
1,058361604809761E-001	-1,515709139564725E-003
1,087990403175354E-001	-1,492432513175497E-003
1,117918491363525E-001	-1,363252698841771E-003
1,147841513156891E-001	-1,430628933231105E-003
1,178011223673821E-001	-1,389254671031034E-003
1,208021864295006E-001	-1,278315910355932E-003
1,237873286008835E-001	-1,295240556727452E-003
1,267873197793961E-001	-1,239441017282336E-003
1,298021674156189E-001	-1,253250167118730E-003
1,328021585941315E-001	-1,163409767859438E-003
1,357830464839935E-001	-1,100692425232544E-003
1,388064026832581E-001	-9,888665266333668E-004
1,417925953865051E-001	-1,045621029123613E-003
1,448084861040115E-001	-1,022872063576535E-003
1,477989554405212E-001	-9,209320644921921E-004
1,507703065872192E-001	-9,511647620591406E-004
1,537777334451675E-001	-9,027783345977210E-004
1,567671149969101E-001	-9,367484267554793E-004
1,598042398691177E-001	-7,873593032888537E-004
1,627373993396759E-001	-8,780869099980371E-004
1,658010333776474E-001	-8,504067314889785E-004
1,687734574079514E-001	-7,328655496571159E-004
1,717925220727921E-001	-8,056280092171566E-004
1,747606992721558E-001	-6,698093072006733E-004
1,777554005384445E-001	-6,810658621647959E-004
1,807681173086166E-001	-6,459520861796953E-004
1,838041692972183E-001	-6,097034865888418E-004
1,867787092924118E-001	-5,644502394059406E-004
1,897914409637451E-001	-5,593126994359336E-004
1,927840262651443E-001	-5,899108879627111E-004
1,957691460847855E-001	-4,788041349654657E-004
1,987861096858978E-001	-4,812682456961029E-004
2,017638385295868E-001	-4,285106086643750E-004
2,047712355852127E-001	-3,838203099938379E-004
2,077945768833160E-001	-3,952449054580691E-004
2,108094394207001E-001	-3,411520087697505E-004
2,138072848320007E-001	-2,389526962529257E-004
2,167669832706451E-001	-2,824993287638924E-004
2,197797149419785E-001	-2,414433392788037E-004
2,227913886308670E-001	-2,244921435916509E-004
2,257818132638931E-001	-1,454956949226440E-004
2,287956029176712E-001	-8,143135524581635E-005
2,318189144134521E-001	2,332938368315100E-005
2,347966432571411E-001	-6,278461318776876E-006
2,377775609493256E-001	-3,274717605732065E-005
2,408114969730377E-001	-8,716056712459086E-006
2,437711805105209E-001	9,953453017885728E-005
2,467796653509140E-001	4,746662698570004E-005
2,497775554656982E-001	1,043065609817654E-004
2,527626752853394E-001	2,063113445526848E-004
2,558114528656006E-001	1,849094099994819E-004
2,588082551956177E-001	2,340298221699613E-004
2,617965638637543E-001	3,192101516847111E-004
2,647700905799866E-001	3,395391996255724E-004
2,677965760231018E-001	3,672016683738018E-004
2,707965970039368E-001	3,413312838852628E-004
2,737445831298828E-001	4,293825264683089E-004
2,767615616321564E-001	5,581950044154828E-004
2,798061072826386E-001	6,132516576984569E-004
2,827806472778320E-001	6,255162954100042E-004
2,858050465583801E-001	6,634596969282338E-004
2,887499034404755E-001	7,054824662999504E-004
2,918177545070648E-001	7,410207313703863E-004
2,947880029678345E-001	7,763232071908996E-004
2,977890968322754E-001	8,799490980419683E-004
3,008050024509430E-001	9,154961408057748E-004
3,037742376327515E-001	9,200264975906640E-004
3,067922592163086E-001	1,067423063853282E-003
3,097848296165466E-001	1,083937950566164E-003
3,127901256084442E-001	1,164867976950954E-003
3,157763481140137E-001	1,171096121471172E-003
3,187901377677917E-001	1,181232607863148E-003
3,217667639255524E-001	1,205820790750694E-003
3,248208463191986E-001	1,355994007149594E-003
3,277508616447449E-001	1,442020323125081E-003
3,307784199714661E-001	1,425428730726708E-003
3,337964713573456E-001	1,615490581301584E-003
3,368038833141327E-001	1,581426098507817E-003
3,397900760173798E-001	1,632220793807293E-003
3,428335487842560E-001	1,681305767137761E-003
3,457975089550018E-001	1,763040471242094E-003
3,488250374794006E-001	1,786063495240311E-003
3,517953455448151E-001	1,865398884951398E-003
3,548069894313812E-001	1,895180743236712E-003
3,578070104122162E-001	1,993035196560583E-003
3,607899248600006E-001	2,096871075080407E-003
3,633011281490326E-001	1,975239778403193E-003
3,607380688190460E-001	3,174202283873654E-003
3,577476143836975E-001	2,979292873794323E-003
3,547285199165344E-001	2,803850656669549E-003
3,517667055130005E-001	2,574778347816730E-003
3,487507998943329E-001	2,434093312819675E-003
3,457561433315277E-001	2,365887705644179E-003
3,427709639072418E-001	2,348234836711486E-003
3,397815823554993E-001	2,153533578368505E-003
3,367688655853271E-001	2,110900642340614E-003
3,337953984737396E-001	2,083205880707182E-003
3,307254314422607E-001	1,922669265796794E-003
3,277041912078857E-001	1,834108213516730E-003
3,247763216495514E-001	1,817885013510760E-003
3,217604160308838E-001	1,837621596678225E-003
3,187508881092072E-001	1,788082680554401E-003
3,157742023468018E-001	1,696087592790711E-003
3,127328753471375E-001	1,691919861042588E-003
3,097540736198425E-001	1,598801811235687E-003
3,067678809165955E-001	1,560445793778075E-003
3,037816882133484E-001	1,589469941757633E-003
3,007912337779999E-001	1,510653344951145E-003
2,978060543537140E-001	1,516704584160098E-003
2,948155999183655E-001	1,442456555634165E-003
2,917700111865997E-001	1,356722030929326E-003
2,887955009937286E-001	1,395764908293299E-003
2,858050167560577E-001	1,305833146649026E-003
2,828166782855988E-001	1,289064683010953E-003
2,797689735889435E-001	1,300309470496832E-003
2,767573297023773E-001	1,210651824361848E-003
2,738103866577148E-001	1,240183049284738E-003
2,707817256450653E-001	1,317372659522570E-003
2,677721679210663E-001	1,157071873118792E-003
2,648347616195679E-001	1,190585173592098E-003
2,618124783039093E-001	1,120080466063410E-003
2,588379979133606E-001	1,146195495999161E-003
2,558167874813080E-001	1,065144562912965E-003
2,528263032436371E-001	1,036297295959904E-003
2,497701197862625E-001	1,048989223868880E-003
2,467934340238571E-001	1,032539203583415E-003
2,438072413206100E-001	9,539790089210867E-004
2,408072352409363E-001	9,390586115774493E-004
2,378443777561188E-001	9,371250335806075E-004
2,348327189683914E-001	9,227912718146117E-004
2,317934632301331E-001	8,446761254221943E-004
2,287701368331909E-001	8,422326331954007E-004
2,257955968379974E-001	8,357834578726370E-004
2,227765172719955E-001	8,013034069807440E-004
2,198094278573990E-001	8,503265423348274E-004
2,168285399675369E-001	8,583408520642620E-004
2,138200402259827E-001	6,906889223825142E-004
2,107670009136200E-001	6,442271553708089E-004
2,077998816967011E-001	7,130487866157222E-004
2,047776132822037E-001	7,169394843618594E-004
2,017861008644104E-001	6,750522721901027E-004
1,988158226013184E-001	6,148256536478089E-004
1,957988590002060E-001	6,390660524899696E-004
1,928009688854218E-001	5,466377313294093E-004
1,897903978824615E-001	4,725548276972576E-004
1,868031173944473E-001	4,712756103631196E-004
1,838211566209793E-001	5,132482444794167E-004
1,807596385478973E-001	4,589873906297743E-004
1,777967661619186E-001	4,462334967414525E-004
1,747967749834061E-001	4,393775745349425E-004
1,717872321605682E-001	3,761532980543401E-004
1,688127070665360E-001	3,625711113070564E-004
1,657766401767731E-001	3,379858624746831E-004
1,627670973539352E-001	2,544531620919273E-004
1,598424166440964E-001	2,482869570925497E-004
1,567766517400742E-001	2,220216169243269E-004
1,538190990686417E-001	1,859145194666101E-004
1,507809013128281E-001	1,997973221745247E-004
1,477756053209305E-001	3,952304826763481E-005
1,447989642620087E-001	8,699579433368837E-005
1,418201625347137E-001	1,401071174945581E-004
1,387586444616318E-001	9,653395242518515E-005
1,358042508363724E-001	7,740160727057286E-005
1,327724456787109E-001	4,266804700637106E-005
1,297958046197891E-001	-3,242001529694491E-005
1,267989873886108E-001	-8,892395789172522E-005
1,237852126359940E-001	-7,358801040537662E-005
1,207724958658218E-001	-1,464153178595642E-004
1,178085580468178E-001	-1,382890079429234E-004
1,148117482662201E-001	-1,285916698550325E-004
1,117748841643333E-001	-2,918031299130180E-004
1,087618917226791E-001	-2,819570055618417E-004
1,058053970336914E-001	-1,965172686882229E-004
1,027969270944595E-001	-3,216276813789059E-004
9,979797899723053E-002	-3,067397343220026E-004
9,676829725503922E-002	-3,407717968760453E-004
9,384466707706451E-002	-3,335739588145000E-004
9,078739583492279E-002	-4,082759251020810E-004
8,782452344894409E-002	-4,595627050447450E-004
8,478952944278717E-002	-5,241752841171803E-004
8,181075006723404E-002	-4,770621430486271E-004
7,883303612470627E-002	-5,544699266061357E-004
7,580015808343887E-002	-6,414512161562143E-004
7,276622205972672E-002	-6,075694756991329E-004
6,981077790260315E-002	-6,017746644949428E-004
6,677789241075516E-002	-7,215323849541857E-004
6,375880539417267E-002	-6,824777550365133E-004
6,378851085901260E-002	-3,117671245423416E-003
6,686276942491531E-002	-2,651302802203437E-003
6,985957175493240E-002	-2,512020603651972E-003
7,277577370405197E-002	-2,323630073415524E-003
7,583728432655334E-002	-2,327231891319611E-003
7,880227267742157E-002	-2,190452231136272E-003
8,182135224342346E-002	-2,159836494818724E-003
8,482135087251663E-002	-2,082770422324142E-003
8,780862390995026E-002	-1,917252607486084E-003
9,082558006048203E-002	-1,884078320324948E-003
9,380754083395004E-002	-1,912371523101478E-003
9,680435806512833E-002	-1,706393004252717E-003
9,983192384243011E-002	-1,700981340710086E-003
1,028234362602234E-001	-1,566070415383029E-003
1,057926714420319E-001	-1,625347987636919E-003
1,088032722473145E-001	-1,574190844790054E-003
1,117779538035393E-001	-1,447457763763316E-003
1,148000657558441E-001	-1,532963849159493E-003
1,177693009376526E-001	-1,419339929607645E-003
1,207990050315857E-001	-1,457194903196066E-003
1,237756684422493E-001	-1,399461910194889E-003
1,268170177936554E-001	-1,329726534297354E-003
1,297936737537384E-001	-1,363269285556507E-003
1,328138262033463E-001	-1,270543324574614E-003
1,357788145542145E-001	-1,165894537633794E-003
1,387936621904373E-001	-1,139187103911320E-003
1,418021470308304E-001	-1,188348769910931E-003
1,447766870260239E-001	-1,158378403084089E-003
1,477968394756317E-001	-1,023379051545172E-003
1,507862210273743E-001	-1,069372085988073E-003
1,537671089172363E-001	-9,602991254487950E-004
1,567893922328949E-001	-9,823643143186522E-004
1,597830057144165E-001	-8,860304607744111E-004
1,627480089664459E-001	-9,200713436628063E-004
1,657925397157669E-001	-8,453989356624948E-004
1,687967777252197E-001	-8,197348591246975E-004
1,717904210090637E-001	-7,618898286902258E-004
1,747861653566360E-001	-7,442488836373034E-004
1,778010129928589E-001	-7,696830615107810E-004
1,807405501604080E-001	-6,785280513415485E-004
1,837638765573502E-001	-6,797129567025426E-004
1,868041604757309E-001	-5,381435774880743E-004
1,897787004709244E-001	-5,837770847089492E-004
1,928381174802780E-001	-6,473521191057638E-004
1,957924813032150E-001	-6,142308680460269E-004
1,987670212984085E-001	-4,723313718218193E-004
2,017754912376404E-001	-5,015088405613162E-004
2,047818601131439E-001	-4,518991707435048E-004
2,077956646680832E-001	-3,739962234316470E-004
2,108030468225479E-001	-3,524557806923890E-004
2,138221710920334E-001	-4,473953588078261E-004
2,167956382036209E-001	-2,682245008650682E-004
2,197563946247101E-001	-2,590076219180283E-004
2,228019833564758E-001	-2,521074715062868E-004
2,257924079895020E-001	-1,799492606551209E-004
2,288083434104919E-001	-8,071216058380269E-005
2,318093776702881E-001	-1,239169089488870E-004
2,348295599222183E-001	-1,198876265128226E-004
2,377754300832748E-001	-7,966579789861375E-005
2,408030182123184E-001	-5,907441155378129E-005
2,438082993030548E-001	2,972549817262336E-005
2,468316406011581E-001	5,373098047740775E-006
2,498284578323364E-001	8,388910644001678E-005
2,527955770492554E-001	1,994259393574825E-004
2,558104097843170E-001	2,038177576650932E-004
2,588040232658386E-001	2,428576294564492E-004
2,618347704410553E-001	2,600033208013715E-004
2,647742927074432E-001	3,185351765708864E-004
2,677870392799377E-001	3,379770137144078E-004
2,707700431346893E-001	3,452721335903616E-004
2,737912833690643E-001	4,290111273129930E-004
2,767966091632843E-001	5,003145653501148E-004
2,798092961311340E-001	5,830012954127748E-004
2,827965617179871E-001	6,619505635104307E-004
2,858294248580933E-001	5,725965100248660E-004
2,888114154338837E-001	6,389009641780951E-004
2,918230593204498E-001	7,381645920456013E-004
2,947848737239838E-001	7,999121512396101E-004
2,977827191352844E-001	7,935897236637651E-004
3,007965385913849E-001	8,924229918892291E-004
3,037774264812469E-001	9,792981327420925E-004
3,068049848079681E-001	1,014597595174024E-003
3,097487688064575E-001	9,525671227695286E-004
3,127996623516083E-001	1,073309185172813E-003
3,157806396484375E-001	1,115659248752210E-003
3,187805712223053E-001	1,210722587849751E-003
3,217497766017914E-001	1,239791077516639E-003
3,247848153114319E-001	1,282335524672783E-003
3,277741670608521E-001	1,420217485440814E-003
3,307625353336334E-001	1,403328224425966E-003
3,338017463684082E-001	1,487910171624237E-003
3,368261456489563E-001	1,596661868179413E-003
3,397890031337738E-001	1,552399023955365E-003
3,427953720092773E-001	1,710996157406181E-003
3,458070456981659E-001	1,668778886604980E-003
3,487699031829834E-001	1,865307625983546E-003
3,517932295799255E-001	1,824004005794905E-003
3,547518551349640E-001	1,926300555135610E-003
3,577751815319061E-001	1,917561213741908E-003
3,607791066169739E-001	2,008140345140963E-003
3,631865382194519E-001	1,879443076904863E-003
3,607393205165863E-001	3,103592858146546E-003
3,577804863452911E-001	2,850910788386798E-003
3,547422885894775E-001	2,683252965046741E-003
3,517741560935974E-001	2,568155245676787E-003
3,487730920314789E-001	2,418777892206379E-003
3,457147777080536E-001	2,329924779751816E-003
3,427274823188782E-001	2,264663982276503E-003
3,397582769393921E-001	2,137732015356700E-003
3,368176817893982E-001	2,040525861149136E-003
3,337848186492920E-001	2,010287083572211E-003
3,307338654994965E-001	1,908801187474392E-003
3,277646303176880E-001	1,837839640462267E-003
3,247794806957245E-001	1,768068937127297E-003
3,217583000659943E-001	1,692226352975862E-003
3,187179863452911E-001	1,718975148218371E-003
3,157848417758942E-001	1,683050712135467E-003
3,127477169036865E-001	1,594023843019252E-003
3,097678720951080E-001	1,521727086112729E-003
3,067774176597595E-001	1,548655617625631E-003
3,037424087524414E-001	1,475135753080562E-003
3,007795512676239E-001	1,408103216784154E-003
2,977540791034698E-001	1,407675859472539E-003
2,948410511016846E-001	1,419253719952260E-003
2,917891144752502E-001	1,409942482833108E-003
2,887848615646362E-001	1,337044375422581E-003
2,857912480831146E-001	1,328546692228106E-003
2,827795743942261E-001	1,247920226079367E-003
2,797880768775940E-001	1,212894883523129E-003
2,767679095268250E-001	1,202944004237195E-003
2,737870514392853E-001	1,218277023562459E-003
2,708315849304199E-001	1,170247214893743E-003
2,678050696849823E-001	1,144706976042976E-003
2,648082673549652E-001	1,150761176716147E-003
2,618443071842194E-001	1,161363414953315E-003
2,587849199771881E-001	1,007146291806713E-003
2,557902336120605E-001	1,076530896103516E-003
2,527913153171539E-001	1,001979263930010E-003
2,498252540826797E-001	9,942391408441376E-004
2,468146681785584E-001	9,334347355602589E-004
2,438295334577560E-001	9,246570143322669E-004
2,408327013254166E-001	8,775645205997967E-004
2,378316372632980E-001	9,025034962548893E-004
2,347955703735352E-001	9,362113399060106E-004
2,317796945571899E-001	8,283144798295096E-004
2,288147062063217E-001	7,589151485060737E-004
2,257765233516693E-001	7,490586049622534E-004
2,227754741907120E-001	7,934747673398624E-004
2,197351604700089E-001	7,404548248233482E-004
2,167998999357224E-001	6,961182507354696E-004
2,137935012578964E-001	6,759307066709509E-004
2,107574492692947E-001	6,201253328594319E-004
2,077797204256058E-001	6,127653166037873E-004
2,048126310110092E-001	6,078931088200935E-004
2,018041461706162E-001	6,182211986756371E-004
1,987776160240173E-001	5,518342496307685E-004
1,957585364580154E-001	5,321831401858962E-004
1,927903741598129E-001	5,325810500127993E-004
1,897744685411453E-001	5,413263427019215E-004
1,868073493242264E-001	4,639539523917935E-004
1,837829500436783E-001	4,226386106691090E-004
1,807691752910614E-001	3,743788841987870E-004
1,777575314044952E-001	3,738689525494832E-004
1,747840344905853E-001	4,223231910347944E-004
1,717946529388428E-001	3,399135250085100E-004
1,687936037778854E-001	2,813964465699596E-004
1,657925397157669E-001	3,023739500139090E-004
1,627840697765350E-001	3,051092430892076E-004
1,597681641578674E-001	1,378817584917732E-004
1,567872613668442E-001	2,725096637563916E-004
1,537915170192719E-001	2,216296028378834E-004
1,507883369922638E-001	2,295790706351979E-004
1,477798521518707E-001	2,255713208609432E-005
1,448254734277725E-001	8,266292374409429E-005
1,418233662843704E-001	8,959255846666212E-005
1,387915462255478E-001	8,482641230763734E-005
1,357894241809845E-001	7,277873511088747E-007
1,328138262033463E-001	6,012915970906609E-005
1,297968477010727E-001	-2,195925214281205E-005
1,267745941877365E-001	-2,859706036141392E-005
1,237873286008835E-001	-1,028303338022883E-004
1,207884028553963E-001	-1,547980543145301E-004
1,177512779831886E-001	-1,986041113152875E-004
1,147958263754845E-001	-1,539491831863411E-004
1,118151545524597E-001	-3,166008736823155E-004
1,088350936770439E-001	-1,961488091587345E-004
1,058382838964462E-001	-2,401965341589487E-004
1,027894839644432E-001	-2,696098476180678E-004
9,985526651144028E-002	-3,253562951478538E-004
9,680648148059845E-002	-4,245462104066700E-004
9,375555813312531E-002	-4,309158080652064E-004
9,082452207803726E-002	-4,553743213077891E-004
8,783302456140518E-002	-4,628905028059502E-004
8,478952944278717E-002	-4,066813125299870E-004
8,183409273624420E-002	-4,865620230913442E-004
7,884364575147629E-002	-5,660566297996834E-004
7,582667469978333E-002	-5,571727720895016E-004
7,277894020080566E-002	-6,409914194254844E-004
6,982774287462235E-002	-6,320162093389732E-004
6,682032346725464E-002	-7,220098983048550E-004
6,379912048578262E-002	-6,770248385047735E-004
6,379063427448273E-002	-3,067860998675731E-003
6,681714206933975E-002	-2,736553815642164E-003
6,982138752937317E-002	-2,488487658579442E-003
7,284895330667496E-002	-2,457173246107738E-003
7,579061388969421E-002	-2,369228117947424E-003
7,886167615652084E-002	-2,164298885165616E-003
8,184681832790375E-002	-2,112172081170787E-003
8,482348173856735E-002	-2,030959087143725E-003
8,784785866737366E-002	-2,012522483777576E-003
9,084785729646683E-002	-1,907785176593244E-003
9,380435943603516E-002	-1,821552580997414E-003
9,682133048772812E-002	-1,800436508317575E-003
9,979691356420517E-002	-1,776673621786060E-003
1,028255596756935E-001	-1,684115593350176E-003
1,057799383997917E-001	-1,582216924159888E-003
1,088085770606995E-001	-1,578114063232980E-003
1,118022426962852E-001	-1,501911828485990E-003
1,148064434528351E-001	-1,535466292740174E-003
1,177937015891075E-001	-1,389487485977482E-003
1,208000704646111E-001	-1,372017492030864E-003
1,237841546535492E-001	-1,315139213181313E-003
1,267830729484558E-001	-1,351936101720505E-003
1,297830641269684E-001	-1,265688677247250E-003
1,328138262033463E-001	-1,186615558725428E-003
1,357968300580978E-001	-1,157723966268042E-003
1,387713849544525E-001	-1,110416342498864E-003
1,417862325906754E-001	-1,087133903451087E-003
1,448286622762680E-001	-1,079953656396054E-003
1,478307843208313E-001	-1,104276614838725E-003
1,507883369922638E-001	-1,115306269369928E-003
1,538403183221817E-001	-9,746918624008085E-004
1,567946821451187E-001	-1,026070079980724E-003
1,598063558340073E-001	-8,570209919593341E-004
1,627967953681946E-001	-8,947138739872421E-004
1,658063530921936E-001	-8,558360564839620E-004
1,688190698623657E-001	-8,244508868039523E-004
1,717617660760880E-001	-7,985952472945746E-004
1,747882813215256E-001	-8,197555083481918E-004
1,777797937393188E-001	-6,633689682294737E-004
1,808052659034729E-001	-7,536308562016026E-004
1,837935745716095E-001	-5,744069231460071E-004
1,867787092924118E-001	-5,747075670283416E-004
1,897627860307693E-001	-7,434854850829880E-004
1,927988678216934E-001	-5,629233625465239E-004
1,957224756479263E-001	-5,188078579252495E-004
1,988020241260529E-001	-4,830986625974140E-004
2,017744332551956E-001	-4,890409098287068E-004
2,048158198595047E-001	-4,214129772595627E-004
2,077850401401520E-001	-4,740527461695766E-004
2,108083814382553E-001	-3,634941995861235E-004
2,138168513774872E-001	-3,924712834422854E-004
2,168009281158447E-001	-3,473712921294031E-004
2,197680473327637E-001	-3,477102596257777E-004
2,227998524904251E-001	-2,920876108081808E-004
2,257934957742691E-001	-1,737918743974325E-004
2,287828922271729E-001	-1,286594656233076E-004
2,317701131105423E-001	-1,241261783954320E-004
2,348274290561676E-001	-1,484756407295318E-004
2,377680093050003E-001	-8,479152552564760E-005
2,407287359237671E-001	-8,182633103438579E-005
2,437881380319595E-001	-3,337204490665938E-005
2,468072474002838E-001	-7,299850491798921E-005
2,497966140508652E-001	3,499566514935585E-005
2,528252601623535E-001	8,597595784938994E-005
2,557796537876129E-001	1,680171659978035E-004
2,588167488574982E-001	1,906334882227799E-004
2,617902457714081E-001	2,658777603183225E-004
2,648156881332397E-001	2,428045766936079E-004
2,677955031394959E-001	2,563277934886741E-004
2,707743048667908E-001	3,393181301126562E-004
2,737711071968079E-001	3,628363902626660E-004
2,768082022666931E-001	4,481198705779789E-004
2,797965705394745E-001	5,782056909993125E-004
2,827859520912170E-001	5,877438184143098E-004
2,858040034770966E-001	5,436843318791379E-004
2,887922823429108E-001	6,679517548575506E-004
2,917933464050293E-001	6,911457319768444E-004
2,947816848754883E-001	8,317011441384345E-004
2,977965474128723E-001	7,557111998216393E-004
3,008336722850800E-001	8,507774695047984E-004
3,038071095943451E-001	9,012272285636551E-004
3,067848682403564E-001	9,764891833541432E-004
3,097890913486481E-001	8,570174079775585E-004
3,127689361572266E-001	1,034906001021022E-003
3,158209025859833E-001	1,129877947657103E-003
3,187763392925262E-001	1,120973600618694E-003
3,217752575874329E-001	1,241577225340722E-003
3,247975409030914E-001	1,232773046571311E-003
3,277688622474670E-001	1,384664553218804E-003
3,308039009571075E-001	1,393277218021974E-003
3,337922096252441E-001	1,527327401079141E-003
3,367731273174286E-001	1,452743429944892E-003
3,398038744926453E-001	1,567045161895868E-003
3,428166210651398E-001	1,616967270837014E-003
3,458112776279449E-001	1,625403130270157E-003
3,487911224365234E-001	1,742499179642806E-003
3,517858386039734E-001	1,861788237605381E-003
3,548197448253632E-001	1,831623341584213E-003
3,577741086483002E-001	1,897432543012612E-003
3,608120977878571E-001	1,995315350584517E-003
3,632056415081024E-001	1,848288928158581E-003
3,607774674892426E-001	3,147216457754010E-003
3,577719926834106E-001	2,823083245310193E-003
3,547476530075073E-001	2,685431219611525E-003
3,517730832099915E-001	2,539139896439512E-003
3,487762808799744E-001	2,381901529243228E-003
3,457646071910858E-001	2,331799593670670E-003
3,427635729312897E-001	2,171784653607272E-003
3,397699296474457E-001	2,071692880673690E-003
3,367890417575836E-001	1,937448116526259E-003
3,337593376636505E-001	2,092151599855333E-003
3,307667374610901E-001	1,949229403045909E-003
3,277179598808289E-001	1,843112910112014E-003
3,247953951358795E-001	1,804243826461098E-003
3,217774033546448E-001	1,705690668738196E-003
3,187338709831238E-001	1,727906016842303E-003
3,157593607902527E-001	1,665395072829291E-003
3,127763569355011E-001	1,609465924250094E-003
3,097562193870544E-001	1,577284956140450E-003
3,067573010921478E-001	1,492614457876896E-003
3,037530183792114E-001	1,416683414138076E-003
3,007689416408539E-001	1,488243366650380E-003
2,977625727653503E-001	1,512047483372584E-003
2,947445511817932E-001	1,371489090700007E-003
2,917742431163788E-001	1,313340477079487E-003
2,887817025184631E-001	1,322766636467015E-003
2,857976257801056E-001	1,281902206149730E-003
2,827711105346680E-001	1,263842716946746E-003
2,797700464725494E-001	1,224127857077062E-003
2,767997384071350E-001	1,165537057979101E-003
2,737796008586884E-001	1,162574866342496E-003
2,707827985286713E-001	1,138319766209019E-003
2,677912712097168E-001	1,128722596115912E-003
2,647923529148102E-001	1,049051084313156E-003
2,617796063423157E-001	1,044005034499501E-003
2,588019073009491E-001	1,049145481517744E-003
2,558189034461975E-001	1,039795905819993E-003
2,527849376201630E-001	9,954475469082097E-004
2,498316317796707E-001	1,011420139716560E-003
2,468199580907822E-001	9,229828364941198E-004
2,437955886125565E-001	8,702311255719751E-004
2,407732903957367E-001	8,136181205810745E-004
2,378231585025787E-001	8,934487052177573E-004
2,347934842109680E-001	8,973453113867425E-004
2,318200021982193E-001	9,364235765032328E-004
2,287648469209671E-001	7,513370361872770E-004
2,257892489433289E-001	7,769126371689090E-004
2,228338271379471E-001	6,816017138320338E-004
2,197722792625427E-001	7,621308462314918E-004
2,167988121509552E-001	6,998940338723534E-004
2,137786597013474E-001	6,096321543572619E-004
2,108200341463089E-001	6,025728130730893E-004
2,077850252389908E-001	6,633064866171604E-004
2,047913968563080E-001	5,876141944167186E-004
2,017595916986465E-001	6,819318301765007E-004
1,987924575805664E-001	4,757234064190572E-004
1,957977861166000E-001	5,812917241335641E-004
1,927872151136398E-001	4,784115499205654E-004
1,897606849670410E-001	4,936502061388688E-004
1,867712736129761E-001	4,288254238215610E-004
1,838137358427048E-001	4,465872137155158E-004
1,807416081428528E-001	4,467316158061931E-004
1,778126806020737E-001	4,035593172846824E-004
1,748105585575104E-001	4,476748391189830E-004
1,717787533998489E-001	3,658133912351879E-004
1,688158810138702E-001	3,637619126864058E-004
1,657925397157669E-001	2,941061302408335E-004
1,627448052167892E-001	2,761321759323799E-004
1,597830057144165E-001	1,766799322535069E-004
1,567830145359039E-001	1,341560884476950E-004
1,538053154945374E-001	1,796657905001837E-004
1,508169770240784E-001	2,601742947397848E-004
1,478244066238403E-001	9,457386050194631E-005
1,448381990194321E-001	6,300590786378508E-005
1,418329179286957E-001	1,059129622578638E-004
1,388435214757919E-001	3,622771810251355E-005
1,358095705509186E-001	3,723873237767580E-005
1,328106373548508E-001	7,389701415958265E-005
1,298371851444244E-001	-1,874057104318876E-005
1,267597377300262E-001	-1,133087922969225E-004
1,237565651535988E-001	-6,886312824702949E-005
1,208170428872108E-001	-8,385717813389458E-005
1,177746206521988E-001	-1,266463107438337E-004
1,148478165268898E-001	-2,434181963137763E-004
1,117960587143898E-001	-3,069542845733626E-004
1,088722348213196E-001	-2,161831078713778E-004
1,058234348893166E-001	-2,885329357485288E-004
1,027788743376732E-001	-3,556066664411142E-004
9,980541467666626E-002	-4,005475294387986E-004
9,679692983627319E-002	-4,090098399232118E-004
9,383194148540497E-002	-3,357020668099055E-004
9,082028269767761E-002	-4,650244857623848E-004
8,781711012125015E-002	-4,012549157289850E-004
8,479271084070206E-002	-5,033540158163119E-004
8,183196932077408E-002	-5,222476278908699E-004
7,882773131132126E-002	-5,378429836132106E-004
7,576727122068405E-002	-5,187872302569825E-004
7,280864566564560E-002	-5,793440432676636E-004
6,980441510677338E-002	-6,391226763837597E-004
6,676834821701050E-002	-7,459112983067596E-004
6,376411020755768E-002	-7,446350264554320E-004
6,380124390125275E-002	-3,166703119657339E-003
6,681502610445023E-002	-2,744497389128513E-003
6,981501728296280E-002	-2,560071256606608E-003
7,279592007398605E-002	-2,491927439256903E-003
7,580333203077316E-002	-2,310882125491975E-003
7,881819456815720E-002	-2,242461237579436E-003
8,182348310947418E-002	-2,178948081159940E-003
8,483620733022690E-002	-2,059305487718023E-003
8,780013769865036E-002	-2,008189614604854E-003
9,083407372236252E-002	-1,931665864301772E-003
9,380542486906052E-002	-1,867875651172378E-003
9,681602567434311E-002	-1,757933315915316E-003
9,977782517671585E-002	-1,829313372983555E-003
1,027937382459641E-001	-1,676222194006452E-003
1,057990416884422E-001	-1,667276471565584E-003
1,088191866874695E-001	-1,569607452789563E-003
1,117629036307335E-001	-1,459393117458789E-003
1,147799193859100E-001	-1,527148410147037E-003
1,178075075149536E-001	-1,481373417088134E-003
1,208096072077751E-001	-1,374110277403681E-003
1,237767264246941E-001	-1,404587577174723E-003
1,268074810504913E-001	-1,310455612568794E-003
1,298392862081528E-001	-1,346615728295917E-003
1,328074634075165E-001	-1,292007078316400E-003
1,357734948396683E-001	-1,213446823520049E-003
1,388063877820969E-001	-1,138055242268755E-003
1,417979001998901E-001	-1,141114715210275E-003
1,447862386703491E-001	-1,144059336621903E-003
1,478244066238403E-001	-1,109649969967666E-003
1,508169919252396E-001	-9,997398751524864E-004
1,537989526987076E-001	-9,575903892019358E-004
1,568063646554947E-001	-9,766991321816521E-004
1,597745418548584E-001	-9,436810289739864E-004
1,627533137798309E-001	-9,398227290754839E-004
1,657585948705673E-001	-8,800971242142915E-004
1,688010096549988E-001	-8,774767493041104E-004
1,705015748739243E-001	2,378417819272720E-003