File: fig_si_ecsa/ZrO2/200.txt
C:\EC-lab data\Neethu\2024_10_01_Ni90Fe10_ZrO2\CV_ECSA\CV_ECSA_05_CV_C01.mpr
Ewe/V	<I>/mA
6,970047950744629E-002	-2,962477877736092E-002
7,163163274526596E-002	-2,536955189255369E-003
7,469893991947174E-002	2,236252103541975E-005
7,770417630672455E-002	1,562424075979667E-003
8,071681112051010E-002	2,236897306064831E-003
8,368560671806335E-002	2,724972759923816E-003
8,666915446519852E-002	3,214270968411169E-003
9,570226818323135E-002	4,340192953639591E-003
9,864677488803864E-002	4,585057808443802E-003
1,016745790839195E-001	4,915741002729512E-003
1,046863421797752E-001	5,156191173310544E-003
1,076759621500969E-001	5,425875440282238E-003
1,106686368584633E-001	5,596426732402304E-003
1,136847212910652E-001	5,665674862608605E-003
1,226462423801422E-001	6,129867290176443E-003
1,256675273180008E-001	6,385719327061633E-003
1,286888569593430E-001	6,688757298103493E-003
1,316724121570587E-001	6,756764365656473E-003
1,346976011991501E-001	6,717804777012650E-003
1,376520991325378E-001	6,826225812636227E-003
1,406799256801605E-001	6,911213402666115E-003
1,436699777841568E-001	7,087815329131525E-003
1,466834694147110E-001	7,261776618427335E-003
1,496978253126144E-001	7,490476435288496E-003
1,526679247617722E-001	7,563598655410314E-003
1,556466966867447E-001	7,590179204023384E-003
1,586680114269257E-001	7,713446023527387E-003
1,616433113813400E-001	7,804315653960323E-003
1,646589785814285E-001	7,848657301854661E-003
1,676594465970993E-001	7,941067363224807E-003
1,706486344337463E-001	8,115086577494046E-003
1,736903488636017E-001	8,126757402186019E-003
1,766092330217361E-001	8,377639191414987E-003
1,796787083148956E-001	8,601056987076444E-003
1,826548874378204E-001	8,543403072177533E-003
1,856718659400940E-001	8,525590335755791E-003
1,886666864156723E-001	8,535690715854687E-003
1,916498243808746E-001	8,706968142591462E-003
1,946555078029633E-001	8,835928367675078E-003
1,976637840270996E-001	9,049522015051187E-003
2,006351798772812E-001	9,169576446187100E-003
2,036499828100204E-001	9,239927924103240E-003
2,066955864429474E-001	9,259903713841208E-003
2,096544206142426E-001	9,214620876016238E-003
2,127143591642380E-001	9,398934297512984E-003
2,156718522310257E-001	9,453788592095863E-003
2,186610549688339E-001	9,505814878304446E-003
2,216606736183167E-001	9,653043000649978E-003
2,246802151203156E-001	9,661015346037805E-003
2,276650816202164E-001	9,965051555065468E-003
2,307202219963074E-001	9,968582329086276E-003
2,336920648813248E-001	1,000215230140550E-002
2,367003709077835E-001	9,973965572168130E-003
2,396617829799652E-001	1,011106523963626E-002
2,427286505699158E-001	1,030793887151627E-002
2,457043826580048E-001	1,047792841299355E-002
2,487126886844635E-001	1,053700064072804E-002
2,516788542270660E-001	1,068928002264746E-002
2,546476721763611E-001	1,075083320343270E-002
2,576763331890106E-001	1,073584262716895E-002
2,606572806835175E-001	1,082843410304946E-002
2,636742293834686E-001	1,098562466392075E-002
2,666816711425781E-001	1,112343402978286E-002
2,696378529071808E-001	1,123314244449086E-002
2,726540267467499E-001	1,147044503456776E-002
2,756453752517700E-001	1,141374488427324E-002
2,786597311496735E-001	1,158302535804977E-002
2,816857993602753E-001	1,164947071033981E-002
2,846819460391998E-001	1,173479766971884E-002
2,876767516136169E-001	1,192158668362193E-002
2,906672656536102E-001	1,208473945520054E-002
2,936929464340210E-001	1,226051629369487E-002
2,966981530189514E-001	1,239084479725125E-002
2,996695637702942E-001	1,250111013723651E-002
3,026344478130341E-001	1,256195479386818E-002
3,056930899620056E-001	1,268346350331162E-002
3,086458146572113E-001	1,288796322891853E-002
3,116995692253113E-001	1,302441666642992E-002
3,146339058876038E-001	1,313457417579589E-002
3,176326155662537E-001	1,335279813492490E-002
3,206475377082825E-001	1,348889760534489E-002
3,236341774463654E-001	1,371398682069569E-002
3,266531825065613E-001	1,370483097470371E-002
3,296527266502380E-001	1,383774876328811E-002
3,326626718044281E-001	1,405865684769786E-002
3,356875181198120E-001	1,420188632840541E-002
3,386455774307251E-001	1,441179154094052E-002
3,416770398616791E-001	1,461294271496660E-002
3,446516692638397E-001	1,486036237838564E-002
3,476715385913849E-001	1,499694734846585E-002
3,506586253643036E-001	1,507771453496234E-002
3,536228537559509E-001	1,519589810255717E-002
3,566257357597351E-001	1,529703169944691E-002
3,596094846725464E-001	1,548314441764811E-002
3,626443147659302E-001	1,575025974939903E-002
3,627123832702637E-001	1,473406554396217E-003
3,596775531768799E-001	3,134875649948307E-004
3,566481173038483E-001	-1,144500956461736E-003
3,536560535430908E-001	-2,050377240661674E-003
3,506914079189301E-001	-2,663699229268108E-003
3,476441502571106E-001	-3,180469799229715E-003
3,447180688381195E-001	-3,608141972780796E-003
3,416986167430878E-001	-3,850095250487809E-003
3,386986851692200E-001	-4,174330442093241E-003
3,357045650482178E-001	-4,499091407998757E-003
3,326730132102966E-001	-4,740297241725144E-003
3,296760022640228E-001	-5,039397940614129E-003
3,266681432723999E-001	-5,148391889910564E-003
3,236885368824005E-001	-5,584029488249025E-003
3,206944167613983E-001	-5,613828118404600E-003
3,176945149898529E-001	-5,764751793954609E-003
3,147256672382355E-001	-5,776253526204043E-003
3,116775453090668E-001	-5,980338977204361E-003
3,086917996406555E-001	-6,195581882903665E-003
3,057034909725189E-001	-6,395538208959217E-003
3,026817739009857E-001	-6,518906118716694E-003
2,997433245182037E-001	-6,607640956396835E-003
2,966985702514648E-001	-6,662314696685913E-003
2,937124073505402E-001	-6,759637777163735E-003
2,906846404075623E-001	-6,800160103921357E-003
2,877358198165894E-001	-6,914911286168543E-003
2,847171127796173E-001	-7,057075500432025E-003
2,817239761352539E-001	-7,146128843983607E-003
2,786848843097687E-001	-7,360351854003945E-003
2,756813764572144E-001	-7,221407068672372E-003
2,726882696151733E-001	-7,401416928587402E-003
2,696882188320160E-001	-7,433213513898168E-003
2,667003273963928E-001	-7,519488796209450E-003
2,637163698673248E-001	-7,532323594535845E-003
2,606620788574219E-001	-7,651090499331853E-003
2,577362358570099E-001	-7,808671934237094E-003
2,546754181385040E-001	-7,951712104427716E-003
2,517144381999969E-001	-8,079638306794895E-003
2,487083524465561E-001	-7,895829552002048E-003
2,457408457994461E-001	-8,037429471021984E-003
2,427234351634979E-001	-8,038081274786550E-003
2,396791428327560E-001	-8,113952372282667E-003
2,367216199636459E-001	-8,206855253526740E-003
2,337246388196945E-001	-8,298187476777276E-003
2,307171970605850E-001	-8,554791456431704E-003
2,277206182479858E-001	-8,610427246987296E-003
2,247197180986404E-001	-8,494351920159120E-003
2,216910421848297E-001	-8,609776781089401E-003
2,187165915966034E-001	-8,619825538103601E-003
2,156974524259567E-001	-8,710912327925029E-003
2,127039283514023E-001	-8,799487882408183E-003
2,097199410200119E-001	-8,947092505629611E-003
2,067224979400635E-001	-9,058270585972576E-003
2,037124931812286E-001	-9,123825368491913E-003
2,006967812776566E-001	-9,169917915394121E-003
1,977601200342178E-001	-9,104653028109810E-003
1,947149634361267E-001	-9,122407052018373E-003
1,916832327842712E-001	-9,233541385087390E-003
1,887083649635315E-001	-9,259449392133801E-003
1,857438981533051E-001	-9,373831712103056E-003
1,827403903007507E-001	-9,540478296085786E-003
1,796860992908478E-001	-9,788480951514938E-003
1,766860485076904E-001	-9,639740051253218E-003
1,736942380666733E-001	-9,602726727280214E-003
1,707054823637009E-001	-9,689428208565137E-003
1,676833331584930E-001	-9,745078933271756E-003
1,647253781557083E-001	-9,832641836923825E-003
1,617175042629242E-001	-1,001529266398971E-002
1,586975306272507E-001	-1,007523301698463E-002
1,556957364082336E-001	-1,020884573550901E-002
1,527434289455414E-001	-1,015275379987460E-002
1,497199535369873E-001	-1,019475167496156E-002
1,467255502939224E-001	-1,021603007492637E-002
1,437203139066696E-001	-1,028736525983151E-002
1,407176554203033E-001	-1,040025708640642E-002
1,376755088567734E-001	-1,050705767242605E-002
1,347440481185913E-001	-1,037361105607654E-002
1,317158043384552E-001	-1,075816426964591E-002
1,287278980016708E-001	-1,076273655863508E-002
1,256874948740005E-001	-1,079573472187881E-002
1,226987317204475E-001	-1,071932080032473E-002
1,197121515870094E-001	-1,075345386793328E-002
1,166682839393616E-001	-1,093956977026456E-002
1,137454807758331E-001	-1,106453646918287E-002
1,107207089662552E-001	-1,116565060378476E-002
1,077519059181213E-001	-1,126638822692756E-002
1,047245413064957E-001	-1,132064991642517E-002
1,016854271292686E-001	-1,125092707810500E-002
9,874441474676132E-002	-1,129965403709901E-002
9,574435651302338E-002	-1,140895028683273E-002
9,272132068872452E-002	-1,145850178495897E-002
8,971477299928665E-002	-1,151971538853434E-002
8,673772215843201E-002	-1,164126057830636E-002
8,371034264564514E-002	-1,161326202600316E-002
8,077582716941834E-002	-1,186353617462868E-002
7,774541527032852E-002	-1,180450697641142E-002
7,472886890172958E-002	-1,182315137454926E-002
7,172016054391861E-002	-1,189801001667299E-002
6,875352561473846E-002	-1,197112407928877E-002
6,572528183460236E-002	-1,216177675467575E-002
6,334193050861359E-002	-1,220692042261362E-002
6,309369951486588E-002	-6,550160236656666E-003
6,597531586885452E-002	1,464098672210704E-003
6,895741075277328E-002	1,794437419843948E-003
7,198767364025116E-002	2,401123095197633E-003
7,498636841773987E-002	2,745765864267981E-003
7,797759771347046E-002	3,126850856658526E-003
8,105558902025223E-002	3,434747167652265E-003
8,398579806089401E-002	3,656866707150703E-003
8,698035031557083E-002	4,139755720762389E-003
8,999358117580414E-002	4,274693771470134E-003
9,298522770404816E-002	4,383756945295011E-003
9,602916985750198E-002	4,582735261465134E-003
9,897682070732117E-002	4,635972970074502E-003
1,020083203911781E-001	4,956575058753059E-003
1,049572154879570E-001	5,140384027665465E-003
1,079662814736366E-001	5,414433486768525E-003
1,109915524721146E-001	5,498791249287344E-003
1,139466762542725E-001	5,670192577900190E-003
1,169690340757370E-001	5,715264292081454E-003
1,199855804443359E-001	5,841372093092795E-003
1,229643747210503E-001	5,958781402865584E-003
1,259908676147461E-001	6,089421904107457E-003
1,289758831262589E-001	6,330648268609060E-003
1,320023834705353E-001	6,488035974895057E-003
1,350168883800507E-001	6,465185433626175E-003
1,379313021898270E-001	6,689117823043489E-003
1,409715116024017E-001	6,638738632239460E-003
1,439893245697021E-001	6,802893938030408E-003
1,469950675964355E-001	6,896815808194449E-003
1,499717831611633E-001	7,055220488362657E-003
1,529559493064880E-001	7,213127249443702E-003
1,559936702251434E-001	7,415509813417098E-003
1,589919775724411E-001	7,481764632836500E-003
1,619433611631393E-001	7,522096295598087E-003
1,649789810180664E-001	7,541092294005736E-003
1,679087877273560E-001	7,628481390028101E-003
1,709838807582855E-001	7,688604338434980E-003
1,739622354507446E-001	7,850005245848526E-003
1,769318878650665E-001	7,952889429045337E-003
1,799716651439667E-001	8,219049389600018E-003
1,829724460840225E-001	8,217305073033102E-003
1,860018670558929E-001	8,189043114132717E-003
1,889349967241287E-001	8,249727074223272E-003
1,919469833374023E-001	8,374568260162210E-003
1,949543952941895E-001	8,448656259529175E-003
1,979958415031433E-001	8,571387410958586E-003
2,009642571210861E-001	8,722221270980532E-003
2,039376497268677E-001	8,847257011043663E-003
2,069496214389801E-001	8,952016089492441E-003
2,099703103303909E-001	9,052580564931967E-003
2,129544764757156E-001	9,014588658038031E-003
2,159556895494461E-001	9,153049268285959E-003
2,190000563859940E-001	9,236299607911641E-003
2,220112085342407E-001	9,323689367311511E-003
2,249821126461029E-001	9,375009683382235E-003
2,279986590147018E-001	9,633142595228739E-003
2,309516817331314E-001	9,848044243762679E-003
2,339736521244049E-001	9,794080323247384E-003
2,369972616434097E-001	9,749700502889813E-003
2,399519532918930E-001	9,847954013267865E-003
2,430137544870377E-001	9,926381538800542E-003
2,460452318191528E-001	1,008460584188986E-002
2,489953786134720E-001	1,027155046287351E-002
2,519741654396057E-001	1,041475188669763E-002
2,549757659435272E-001	1,053937135831172E-002
2,579640746116638E-001	1,054283141702008E-002
2,609677612781525E-001	1,057595171717016E-002
2,639830708503723E-001	1,072307680901167E-002
2,669585645198822E-001	1,075161622761897E-002
2,699643075466156E-001	1,094006922373768E-002
2,729422152042389E-001	1,108917989056310E-002
2,759658396244049E-001	1,107949123046560E-002
2,789213955402374E-001	1,138434204862598E-002
2,819889783859253E-001	1,156109272051256E-002
2,849735617637634E-001	1,159126595287133E-002
2,879436612129211E-001	1,163642008759782E-002
2,909726500511169E-001	1,168677223256016E-002
2,939563989639282E-001	1,191403344273567E-002
2,969380915164948E-001	1,203744240046942E-002
2,999732792377472E-001	1,231466796335831E-002
3,029682934284210E-001	1,239469378671622E-002
3,059620261192322E-001	1,253871802928984E-002
3,089221119880676E-001	1,260795572639126E-002
3,119631111621857E-001	1,261889349536266E-002
3,149635791778564E-001	1,296965863598002E-002
3,179228305816650E-001	1,298104685090285E-002
3,209506273269653E-001	1,328433028307207E-002
3,239701986312866E-001	1,340565079623383E-002
3,269624412059784E-001	1,341350068320354E-002
3,299533724784851E-001	1,373752653175457E-002
3,329303860664368E-001	1,385557052691924E-002
3,359638452529907E-001	1,393358303076563E-002
3,389756083488464E-001	1,412348173818665E-002
3,419530987739563E-001	1,435371610221575E-002
3,449644446372986E-001	1,450832406457767E-002
3,479301929473877E-001	1,477027528943092E-002
3,509306907653809E-001	1,499316524859748E-002
3,539489507675171E-001	1,501058742228040E-002
3,569576442241669E-001	1,511064433692479E-002
3,598887026309967E-001	1,533627749317518E-002
3,628405332565308E-001	1,545959145433325E-002
3,617132008075714E-001	1,110196605227626E-003
3,586551845073700E-001	-4,928614193713474E-004
3,556568622589111E-001	-1,813849480621008E-003
3,526739478111267E-001	-2,347491727426165E-003
3,497221171855927E-001	-2,969914036760245E-003
3,466528654098511E-001	-3,441370666974836E-003
3,436558246612549E-001	-3,786227913263681E-003
3,406716585159302E-001	-4,216903461264833E-003
3,376758396625519E-001	-4,550017512053216E-003
3,346887826919556E-001	-4,839554479076462E-003
3,316722214221954E-001	-5,140800135331615E-003
3,286673426628113E-001	-5,295987207911964E-003
3,256972432136536E-001	-5,433852824827900E-003
3,226914405822754E-001	-5,626575097425208E-003
3,197027742862701E-001	-5,743735199243719E-003
3,166733384132385E-001	-5,946069678943969E-003
3,136767148971558E-001	-6,036434656340614E-003
3,107427656650543E-001	-6,446000966124368E-003
3,076772093772888E-001	-6,342239414896686E-003
3,047027587890625E-001	-6,564326727212480E-003
3,016623556613922E-001	-6,657235976821191E-003
2,986748814582825E-001	-6,630061738095806E-003
2,957182526588440E-001	-6,766749479621373E-003
2,927142977714539E-001	-6,935154136706180E-003
2,897185981273651E-001	-7,091983477618066E-003
2,867168188095093E-001	-7,218607423717244E-003
2,836907804012299E-001	-7,354911324000568E-003
2,807193398475647E-001	-7,434067520245502E-003
2,777101993560791E-001	-7,316624587887913E-003
2,747144997119904E-001	-7,447683453805948E-003
2,717409133911133E-001	-7,505764571264589E-003
2,686909735202789E-001	-7,614496543448493E-003
2,656978666782379E-001	-7,758607087453115E-003
2,627277970314026E-001	-7,698717238864353E-003
2,596994936466217E-001	-7,928813835364540E-003
2,566985785961151E-001	-7,984051713719950E-003
2,536872923374176E-001	-7,975781744211097E-003
2,507236897945404E-001	-8,032083604120985E-003
2,477431893348694E-001	-8,099859263480030E-003
2,447300851345062E-001	-8,245756633600235E-003
2,416797429323196E-001	-8,329247138796902E-003
2,387018203735352E-001	-8,438145455412160E-003
2,356887757778168E-001	-8,563401467654358E-003
2,327351570129395E-001	-8,559719125266596E-003
2,297351062297821E-001	-8,541321305942345E-003
2,267424613237381E-001	-8,558727266724658E-003
2,237142175436020E-001	-8,686103961405359E-003
2,207063585519791E-001	-8,744554514454321E-003
2,177054584026337E-001	-8,854877354348312E-003
2,147388309240341E-001	-9,015519798181604E-003
2,117361575365067E-001	-8,873102290635870E-003
2,087174654006958E-001	-9,160599819469192E-003
2,056744545698166E-001	-9,058618012865959E-003
2,026896178722382E-001	-9,066424024984532E-003
1,997047513723373E-001	-9,136363080787385E-003
1,967086195945740E-001	-9,295840525985755E-003
1,937563121318817E-001	-9,373331961631426E-003
1,906716525554657E-001	-9,514931547032160E-003
1,876993924379349E-001	-9,673570452088637E-003
1,847071349620819E-001	-9,526970448860056E-003
1,816814988851547E-001	-9,559628952129889E-003
1,787352561950684E-001	-9,600751873883609E-003
1,756545156240463E-001	-9,605121646266257E-003
1,727017611265183E-001	-9,714012733308061E-003
1,697295159101486E-001	-9,871146123755781E-003
1,667008250951767E-001	-9,987068904096785E-003
1,637320071458817E-001	-1,013180893410619E-002
1,606872677803040E-001	-1,003385651148908E-002
1,576998233795166E-001	-1,007000263218120E-002
1,547275483608246E-001	-1,011456853716067E-002
1,516780108213425E-001	-1,018064376710917E-002
1,487257182598114E-001	-1,025249373560658E-002
1,457252651453018E-001	-1,042607874809287E-002
1,427330225706100E-001	-1,045654462789325E-002
1,397108435630798E-001	-1,069877330056360E-002
1,367042958736420E-001	-1,074703682256353E-002
1,337953805923462E-001	-1,061647033748162E-002
1,307324171066284E-001	-1,063600359768977E-002
1,277067661285400E-001	-1,066137662151464E-002
1,246919780969620E-001	-1,089762182494847E-002
1,216975748538971E-001	-1,085014074520917E-002
1,187309399247170E-001	-1,101357481043529E-002
1,157148480415344E-001	-1,113103269314955E-002
1,127286851406097E-001	-1,118953285533117E-002
1,097460165619850E-001	-1,113442511715132E-002
1,067203730344772E-001	-1,113896108704052E-002
1,037025302648544E-001	-1,130614356688139E-002
1,007319986820221E-001	-1,142816593677373E-002
9,771893173456192E-002	-1,155663441171451E-002
9,472626447677612E-002	-1,157859236280435E-002
9,172449260950089E-002	-1,169647671403334E-002
8,870925754308701E-002	-1,171327593494259E-002
8,576215803623199E-002	-1,171941797805301E-002
8,273954689502716E-002	-1,175768327663140E-002
7,975123077630997E-002	-1,180355235456686E-002
7,674510031938553E-002	-1,193029070732746E-002
7,371989637613297E-002	-1,210169188231125E-002
7,072332501411438E-002	-1,199990474577292E-002
6,772457808256149E-002	-1,224351521423989E-002
6,475275754928589E-002	-1,231236933083639E-002
6,320826709270477E-002	-1,228555012494326E-002
6,399444490671158E-002	1,416978682339951E-003
6,699771434068680E-002	1,314095187301915E-003
6,997192651033401E-002	1,864595064034802E-003
7,298225164413452E-002	2,481342564568997E-003
7,597804814577103E-002	2,927125030549607E-003
7,899626344442368E-002	3,322362213942183E-003
8,201404660940170E-002	3,511292143111466E-003
8,495547622442245E-002	3,649372098192084E-003
8,801394701004028E-002	3,884979460449169E-003
9,102427959442139E-002	4,152488781311039E-003
9,398853033781052E-002	4,388255408072014E-003
9,694779664278030E-002	4,467727785872136E-003
9,996891766786575E-002	4,824930933310781E-003
1,029613986611366E-001	4,895974072417666E-003
1,059775277972221E-001	5,183095744264996E-003
1,089903414249420E-001	5,292678170877994E-003
1,119471192359924E-001	5,278270116990738E-003
1,149943917989731E-001	5,487628764651338E-003
1,179906055331230E-001	5,683769803315808E-003
1,209432333707809E-001	5,835717978065411E-003
1,239473223686218E-001	6,062709597165913E-003
1,270033121109009E-001	6,219294531072825E-003
1,299887299537659E-001	6,344191540056693E-003
1,329758018255234E-001	6,296808543202553E-003
1,359728574752808E-001	6,444964150590676E-003
1,389682292938232E-001	6,518173608840362E-003
1,419988870620728E-001	6,639499637379288E-003
1,449963599443436E-001	6,811571966349933E-003
1,479875892400742E-001	6,846623165904980E-003
1,509804874658585E-001	7,138865641378389E-003
1,539999395608902E-001	7,124416574499810E-003
1,569994688034058E-001	7,155958685436226E-003
1,599554270505905E-001	7,291512695740937E-003
1,629483103752136E-001	7,314266807003617E-003
1,659403890371323E-001	7,538614642212255E-003
1,689917892217636E-001	7,696348587832427E-003
1,719585061073303E-001	7,775882828592241E-003
1,749642938375473E-001	7,914336057302046E-003
1,779455691576004E-001	7,977151852015724E-003
1,809463202953339E-001	8,019967106203882E-003
1,839711815118790E-001	8,042333484453337E-003
1,869719773530960E-001	8,161334182738705E-003
1,900009661912918E-001	8,327295685692515E-003
1,929452866315842E-001	8,394712702521123E-003
1,959850937128067E-001	8,549485088224146E-003
1,989954262971878E-001	8,446822741461829E-003
2,019601017236710E-001	8,688291818860161E-003
2,049563080072403E-001	8,728906506329003E-003
2,080052196979523E-001	8,783887861563575E-003
2,109553664922714E-001	8,910064650436950E-003
2,139880955219269E-001	9,028546394208969E-003
2,169623076915741E-001	9,115368966851514E-003
2,199523150920868E-001	9,290070501067560E-003
2,229560017585754E-001	9,425728404375666E-003
2,259696125984192E-001	9,478772428337834E-003
2,290164828300476E-001	9,442704035435512E-003
2,319882065057755E-001	9,481083439744076E-003
2,349669784307480E-001	9,555123656473784E-003
2,379657030105591E-001	9,718531773061201E-003
2,409764379262924E-001	9,871061165461506E-003
2,439543604850769E-001	1,003668357051264E-002
2,470148950815201E-001	1,020724687528539E-002
2,499509453773499E-001	1,009475800943308E-002
2,529650032520294E-001	1,028482396751595E-002
2,559558153152466E-001	1,035139603418825E-002
2,589507699012756E-001	1,043010718738355E-002
2,619644403457642E-001	1,059696939062078E-002
2,649536132812500E-001	1,075060538768532E-002
2,679888010025024E-001	1,091237391807695E-002
2,709518373012543E-001	1,107888927926194E-002
2,739413976669312E-001	1,108625896639474E-002
2,769600450992584E-001	1,106077224334440E-002
2,799566388130188E-001	1,127254535079020E-002
2,830072343349457E-001	1,128424810667641E-002
2,859955430030823E-001	1,150854046120561E-002
2,889739274978638E-001	1,158872583540002E-002
2,919875681400299E-001	1,189360516376758E-002
2,950049638748169E-001	1,198168582872630E-002
2,979787290096283E-001	1,214339200447762E-002
3,009799122810364E-001	1,212800103372584E-002
3,039703369140625E-001	1,226142385158990E-002
3,069238066673279E-001	1,245009767001690E-002
3,099606931209564E-001	1,263485501745576E-002
3,129647374153137E-001	1,278631373266263E-002
3,159556388854980E-001	1,300900890419145E-002
3,189431130886078E-001	1,317941088398750E-002
3,219327330589294E-001	1,320682301246220E-002
3,249444663524628E-001	1,337209514299921E-002
3,279184997081757E-001	1,351451295373740E-002
3,309758007526398E-001	1,366118466384336E-002
3,339394032955170E-001	1,385134427040280E-002
3,369459211826324E-001	1,408097734565669E-002
3,399082124233246E-001	1,409413824529274E-002
3,429742157459259E-001	1,446936460260162E-002
3,459981679916382E-001	1,460656594612050E-002
3,489626049995422E-001	1,457475359496713E-002
3,519726693630219E-001	1,480752744530700E-002
3,549449145793915E-001	1,492830529935998E-002
3,579562008380890E-001	1,516306823759811E-002
3,609662353992462E-001	1,545488393805333E-002
3,633774816989899E-001	1,578433718532324E-002
3,606895804405212E-001	5,874537860504356E-004
3,576855063438416E-001	-1,066696432832508E-003
3,546722531318665E-001	-1,959168193123952E-003
3,516706526279449E-001	-2,657311748921724E-003
3,486881256103516E-001	-3,169348954385066E-003
3,457068800926209E-001	-3,681835801375120E-003
3,426716327667236E-001	-4,095204106029683E-003
3,396965563297272E-001	-4,312887981659880E-003
3,367248475551605E-001	-4,693128279343546E-003
3,337054252624512E-001	-4,906833349907713E-003
3,307079374790192E-001	-5,137132337514921E-003
3,276424109935761E-001	-5,310187598297496E-003
3,246744275093079E-001	-5,557587205302028E-003
3,216566443443298E-001	-5,769402534813534E-003
3,186500370502472E-001	-6,011930018639353E-003
3,156858086585999E-001	-6,221309462647609E-003
3,127098977565765E-001	-6,252969768510142E-003
3,097359538078308E-001	-6,346088307426806E-003
3,066591322422028E-001	-6,500240213922953E-003
3,036516904830933E-001	-6,577327405466332E-003
3,007466793060303E-001	-6,683918136662786E-003
2,977058589458466E-001	-6,839683694620759E-003
2,947166562080383E-001	-6,987331643027922E-003
2,916896939277649E-001	-7,173100273824035E-003
2,887022793292999E-001	-7,145137615390734E-003
2,857195734977722E-001	-7,223606556594438E-003
2,827329933643341E-001	-7,185189526849577E-003
2,797155678272247E-001	-7,401792503432356E-003
2,767255008220673E-001	-7,459678848714596E-003
2,736907601356506E-001	-7,662977341004240E-003
2,707575261592865E-001	-7,731664358040923E-003
2,677180171012878E-001	-7,804764987502641E-003
2,646810710430145E-001	-7,864249636688941E-003
2,617217898368835E-001	-7,792357618034790E-003
2,586909532546997E-001	-7,856703716987073E-003
2,557265162467957E-001	-8,019335724218937E-003
2,527039051055908E-001	-8,102832954054118E-003
2,497398704290390E-001	-8,038746333113467E-003
2,467268258333206E-001	-8,292493733527140E-003
2,437155097723007E-001	-8,355082056286010E-003
2,407427877187729E-001	-8,454604256753942E-003
2,377149760723114E-001	-8,407281486308232E-003
2,346836924552917E-001	-8,383926989650219E-003
2,317322641611099E-001	-8,437551513783195E-003
2,287096530199051E-001	-8,593758735018608E-003
2,256835699081421E-001	-8,734837321340325E-003
2,226761281490326E-001	-8,828007410639535E-003
2,196613401174545E-001	-8,926170261805644E-003
2,166869193315506E-001	-8,984591285876725E-003
2,137267887592316E-001	-8,947591932899873E-003
2,106989771127701E-001	-9,006700647825522E-003
2,077132761478424E-001	-9,103958098338832E-003
2,046889215707779E-001	-9,130321993986612E-003
2,016866952180862E-001	-9,240356285772557E-003
1,986840516328812E-001	-9,131269447276602E-003
1,957100480794907E-001	-9,473860103174581E-003
1,926991790533066E-001	-9,444682157911957E-003
1,897051781415939E-001	-9,536846262562931E-003
1,866947412490845E-001	-9,463427872850122E-003
1,836929619312286E-001	-9,518875027672707E-003
1,807081103324890E-001	-9,666371761837073E-003
1,777110844850540E-001	-9,688380224112940E-003
1,747201681137085E-001	-9,896532572631934E-003
1,716906279325485E-001	-9,914308412837913E-003
1,686944812536240E-001	-9,976491979448943E-003
1,657126396894455E-001	-9,993269877668340E-003
1,626961231231689E-001	-1,001914084091279E-002
1,596947908401489E-001	-1,015361518859043E-002
1,566947251558304E-001	-1,016179018188269E-002
1,536960005760193E-001	-1,017437119067333E-002
1,506955027580261E-001	-1,048084639726517E-002
1,476954817771912E-001	-1,031982776939080E-002
1,446945518255234E-001	-1,046747616353305E-002
1,416884511709213E-001	-1,041744711537002E-002
1,387170553207397E-001	-1,046260711386406E-002
1,357347965240479E-001	-1,055837439294423E-002
1,327343285083771E-001	-1,071840113168449E-002
1,297069489955902E-001	-1,079097416632890E-002
1,267116516828537E-001	-1,087290060488814E-002
1,236868724226952E-001	-1,105322876388855E-002
1,207385137677193E-001	-1,096467467339772E-002
1,176881119608879E-001	-1,102754490371312E-002
1,147193089127541E-001	-1,102674946146594E-002
1,117101609706879E-001	-1,118713840944771E-002
1,087465658783913E-001	-1,116083204661578E-002
1,057274341583252E-001	-1,132164037980227E-002
1,027087345719337E-001	-1,136341390702000E-002
9,970913082361221E-002	-1,148508283503440E-002
9,670864790678024E-002	-1,155858801526355E-002
9,374375641345978E-002	-1,154095657230665E-002
9,071637690067291E-002	-1,155520965750667E-002
8,770374208688736E-002	-1,167041715978647E-002
8,470240235328674E-002	-1,175860904550063E-002
8,171842247247696E-002	-1,188262848104799E-002
7,872749119997025E-002	-1,202637030936865E-002
7,574263215065002E-002	-1,219884103738872E-002
7,272046059370041E-002	-1,206606798454725E-002
6,972865760326386E-002	-1,212348260626392E-002
6,672645360231400E-002	-1,216036546165093E-002
6,378395855426788E-002	-1,230764268784695E-002
6,317007541656494E-002	-1,139071863144636E-002
6,499152630567551E-002	1,399152072627146E-003
6,798814982175827E-002	1,574781453457595E-003
7,096319645643234E-002	2,017276785409205E-003
7,398181408643723E-002	2,589935379230315E-003
7,696474343538284E-002	2,839812134010095E-003
8,001492917537689E-002	3,206987431914738E-003
8,305347710847855E-002	3,486981346292814E-003
8,596418052911758E-002	3,731716330153373E-003
8,901268988847733E-002	3,955171464519448E-003
9,200889617204666E-002	4,316076947440683E-003
9,500054270029068E-002	4,539981919112073E-003
9,800422936677933E-002	4,600998046676682E-003
1,009979620575905E-001	4,763264331418410E-003
1,039543226361275E-001	4,945516083432227E-003
1,069721058011055E-001	5,107699728756909E-003
1,099620983004570E-001	5,275993209579624E-003
1,129828095436096E-001	5,451124600649180E-003
1,159802600741386E-001	5,644414480111291E-003
1,189702525734901E-001	5,830763263356485E-003
1,219610646367073E-001	5,792604916559474E-003
1,250112205743790E-001	5,992261717002971E-003
1,279472559690475E-001	5,996738842441132E-003
1,310040801763535E-001	6,196956079372255E-003
1,339869946241379E-001	6,251494497875050E-003
1,369533091783524E-001	6,560276814485885E-003
1,399926990270615E-001	6,695304770366173E-003
1,430017948150635E-001	6,833018088360898E-003
1,459286808967590E-001	6,838609146459784E-003
1,489838361740112E-001	6,866000221397495E-003
1,519455760717392E-001	6,995374034649213E-003
1,549853831529617E-001	7,128554285610211E-003
1,579840928316116E-001	7,173529473853413E-003
1,609607934951782E-001	7,291727482563320E-003
1,639632284641266E-001	7,505999551105313E-003
1,669590473175049E-001	7,557624802164181E-003
1,699776649475098E-001	7,745073773311670E-003
1,729892492294312E-001	7,723399692543376E-003
1,759422719478607E-001	7,763966187074256E-003
1,789476275444031E-001	7,903935387730598E-003
1,819853335618973E-001	8,021067091961057E-003
1,849799007177353E-001	8,122082456042262E-003
1,879540979862213E-001	8,291407223267655E-003
1,909781247377396E-001	8,428968702387282E-003
1,939465254545212E-001	8,457555641064610E-003
1,969605833292007E-001	8,459631670437201E-003
1,999709159135818E-001	8,554716603454027E-003
2,029451131820679E-001	8,632859798086923E-003
2,059533745050430E-001	8,686360357071127E-003
2,089769840240479E-001	8,857367720496723E-003
2,119345963001251E-001	8,861069607993828E-003
2,149494886398315E-001	9,157831033324196E-003
2,179689407348633E-001	9,217525561404705E-003
2,209468781948090E-001	9,199760963225445E-003
2,239808887243271E-001	9,270632012529589E-003
2,269695997238159E-001	9,303489065211529E-003
2,299708127975464E-001	9,446689903716558E-003
2,330114543437958E-001	9,561323556029174E-003
2,359922975301743E-001	9,832093205699027E-003
2,389830946922302E-001	9,869897989436049E-003
2,419855296611786E-001	9,961037871582236E-003
2,449842542409897E-001	9,971598538433463E-003
2,479887902736664E-001	1,006732705702788E-002
2,509513497352600E-001	1,009681351933979E-002
2,539521157741547E-001	1,026924585391462E-002
2,569313049316406E-001	1,031563243035955E-002
2,599736154079437E-001	1,061840752521198E-002
2,629710435867310E-001	1,053564808013186E-002
2,659593522548676E-001	1,080992592608751E-002
2,689626514911652E-001	1,078358067309682E-002
2,719725668430328E-001	1,086860959406730E-002
2,749679684638977E-001	1,098134837119017E-002
2,780218720436096E-001	1,115640968229223E-002
2,809421122074127E-001	1,127017215802209E-002
2,839760780334473E-001	1,149186229304176E-002
2,869905829429626E-001	1,167540175573895E-002
2,899726629257202E-001	1,171055677300703E-002
2,929473221302032E-001	1,175800150636151E-002
2,959601283073425E-001	1,187602681096431E-002
2,989812493324280E-001	1,202785773167981E-002
3,019720315933228E-001	1,220388165165788E-002
3,049645423889160E-001	1,238742773721635E-002
3,079499304294586E-001	1,244772412657929E-002
3,109588921070099E-001	1,285790968540826E-002
3,140040636062622E-001	1,278897673877175E-002
3,169116675853729E-001	1,293124877073834E-002
3,199217021465302E-001	1,298326688298734E-002
3,229313194751740E-001	1,312030930404776E-002
3,259647190570831E-001	1,343312125622603E-002
3,289296329021454E-001	1,361394833640428E-002
3,319483697414398E-001	1,380906472133414E-002
3,349970281124115E-001	1,405030191579665E-002
3,379752933979034E-001	1,407260685432860E-002
3,409775495529175E-001	1,416244895583740E-002
3,439736664295197E-001	1,429176411693339E-002
3,469637334346771E-001	1,448193148776639E-002
3,499616384506226E-001	1,463162776384380E-002
3,529555499553680E-001	1,477048543463093E-002
3,559612631797791E-001	1,516928255395295E-002
3,589231073856354E-001	1,522227078500939E-002
3,619297146797180E-001	1,544915467192454E-002
3,627169430255890E-001	1,110591126338597E-003
3,597169518470764E-001	5,353485816969052E-005
3,566946387290955E-001	-1,502029351454241E-003
3,536523282527924E-001	-2,323084075867326E-003
3,507055342197418E-001	-2,969505672057421E-003
3,476976752281189E-001	-3,527562602753080E-003
3,446927964687347E-001	-3,875180989147645E-003
3,416878283023834E-001	-4,127562983621433E-003
3,387169539928436E-001	-4,494101894361724E-003
3,356601297855377E-001	-4,688865465259769E-003
3,326813578605652E-001	-5,050594647795864E-003
3,296892940998077E-001	-5,286956013309391E-003
3,266872465610504E-001	-5,306353732996039E-003
3,236644864082336E-001	-5,779153232098273E-003
3,206633329391479E-001	-5,900845531552637E-003
3,176982104778290E-001	-6,001549246202158E-003
3,146969974040985E-001	-6,048724985110139E-003
3,117124140262604E-001	-6,180445211967974E-003
3,086770772933960E-001	-6,474426335857528E-003
3,057338893413544E-001	-6,610709139171021E-003
3,026505112648010E-001	-6,721900705666806E-003
2,997442185878754E-001	-6,824692913886057E-003
2,967354953289032E-001	-6,989415498454998E-003
2,937033474445343E-001	-6,959882883248517E-003
2,906937301158905E-001	-7,039256441533890E-003
2,877162694931030E-001	-7,225415266558122E-003
2,847136259078979E-001	-7,265727740394273E-003
2,817300856113434E-001	-7,417528613669594E-003
2,786900699138641E-001	-7,487011985920777E-003
2,757408320903778E-001	-7,418715120200620E-003
2,727251648902893E-001	-7,716898035637687E-003
2,697007954120636E-001	-7,633024789273871E-003
2,667320370674133E-001	-7,660929818319506E-003
2,636968493461609E-001	-7,808773267573642E-003
2,607097923755646E-001	-7,894165893296945E-003
2,576971948146820E-001	-8,088406984659874E-003
2,546867430210114E-001	-8,103512403729182E-003
2,517083585262299E-001	-8,270340042806539E-003
2,487643063068390E-001	-8,230628498660533E-003
2,457247525453568E-001	-8,230939752138511E-003
2,427720576524735E-001	-8,292869924348051E-003
2,397364228963852E-001	-8,345437830609009E-003
2,367468029260635E-001	-8,384715467483095E-003
2,337289452552795E-001	-8,557707635273692E-003
2,306915968656540E-001	-8,685452843647809E-003
2,277076095342636E-001	-8,771156160698651E-003
2,246828228235245E-001	-8,741681425404262E-003
2,217478901147842E-001	-8,756361058823860E-003
2,186988145112991E-001	-8,758546739045407E-003
2,156883627176285E-001	-8,876141247872657E-003
2,126969844102860E-001	-8,996723864666684E-003
2,096939086914063E-001	-9,153263111742971E-003
2,067294567823410E-001	-9,206576576037739E-003
2,036959826946259E-001	-9,307047158555071E-003
2,006442993879318E-001	-9,314744833483740E-003
1,977679431438446E-001	-9,272145886163971E-003
1,946975737810135E-001	-9,326797674062082E-003
1,916823685169220E-001	-9,371668178160195E-003
1,887118369340897E-001	-9,498921102187322E-003
1,857469379901886E-001	-9,485096147148986E-003
1,827247738838196E-001	-9,733749338755107E-003
1,797212511301041E-001	-9,968736161020116E-003
1,766916960477829E-001	-9,813686795413626E-003
1,737055480480194E-001	-9,847206302021572E-003
1,707332730293274E-001	-9,802240954906512E-003
1,676993966102600E-001	-9,901691445437871E-003
1,646780669689178E-001	-1,007165171805269E-002
1,616745442152023E-001	-1,011412742263926E-002
1,587118357419968E-001	-1,034857223947418E-002
1,557048410177231E-001	-1,030634902913744E-002
1,527421325445175E-001	-1,033643165597323E-002
1,497125774621964E-001	-1,033470978621728E-002
1,467233896255493E-001	-1,037190376436312E-002
1,437120586633682E-001	-1,043023838461851E-002
1,407180875539780E-001	-1,046913989541118E-002
1,377210766077042E-001	-1,060535779900172E-002
1,346919685602188E-001	-1,060587113831638E-002
1,317431479692459E-001	-1,085625396775535E-002
1,287322491407394E-001	-1,091162870976734E-002
1,257387101650238E-001	-1,089736936244828E-002
1,227104514837265E-001	-1,081144135010120E-002
1,197381988167763E-001	-1,096563700544225E-002
1,166778355836868E-001	-1,101403744740473E-002
1,137073040008545E-001	-1,119207934706618E-002
1,107411086559296E-001	-1,124840990682553E-002
1,077215373516083E-001	-1,129350450107514E-002
1,047401577234268E-001	-1,141624375470035E-002
1,016932427883148E-001	-1,134241918440569E-002
9,871272742748261E-002	-1,144652829547835E-002
9,574826806783676E-002	-1,161860739921389E-002
9,269963204860687E-002	-1,158247057802245E-002
8,974905312061310E-002	-1,172645071412920E-002
8,672905713319778E-002	-1,181600317679768E-002
8,372335880994797E-002	-1,178621692534676E-002
8,079101890325546E-002	-1,198270757694528E-002
7,772588729858398E-002	-1,192268036439512E-002
7,471889257431030E-002	-1,199701066715615E-002
7,168066501617432E-002	-1,213518876135242E-002
6,872792541980743E-002	-1,219320501249140E-002
6,571139395236969E-002	-1,227544304128966E-002
6,326554715633392E-002	-1,235717441886663E-002
6,476404517889023E-002	7,195477574777724E-004
6,777188181877136E-002	1,422459583379712E-003
7,081417739391327E-002	2,046777787279061E-003
7,378008216619492E-002	2,485017272627616E-003
7,678999006748199E-002	2,825515017518591E-003
7,977624237537384E-002	3,144760610468996E-003
8,280151337385178E-002	3,428145348231715E-003
8,891840279102325E-002	3,328562978675245E-003
9,496194124221802E-002	4,538084055955391E-003
9,781328588724136E-002	5,325672036870746E-003
1,007862463593483E-001	5,374922494529928E-003
1,037384644150734E-001	4,946919676473531E-003
1,067687124013901E-001	4,881950832184331E-003
1,097848415374756E-001	4,975854405173511E-003
1,127461940050125E-001	5,401838717934093E-003
1,157573387026787E-001	5,673225493291815E-003
1,187855303287506E-001	5,755959261201177E-003
1,217730268836021E-001	5,873220060454095E-003
1,247605085372925E-001	6,150123095168353E-003
1,277571469545364E-001	6,169184937275356E-003
1,307458728551865E-001	6,135729620006690E-003
1,338550001382828E-001	6,292914876726403E-003
1,367470175027847E-001	6,457702808762900E-003
1,397780925035477E-001	6,530336699538383E-003
1,427921652793884E-001	6,597323915427680E-003
1,457605659961700E-001	6,734309952662415E-003
1,487667411565781E-001	6,802445206156527E-003
1,517920047044754E-001	7,006713821006663E-003
1,548056453466415E-001	7,089313416224263E-003
1,578043550252914E-001	7,277728195929201E-003
1,607665270566940E-001	7,329411565281274E-003
1,637793481349945E-001	7,536339689661137E-003
1,667767912149429E-001	7,571353883142160E-003
1,697975099086761E-001	7,613794183824851E-003
1,705206781625748E-001	7,721949368715286E-003