File: fig_si_ecsa/ZrO2/300.txt
C:\EC-lab data\Neethu\2024_10_01_Ni90Fe10_ZrO2\CV_ECSA\CV_ECSA_06_CV_C01.mpr
Ewe/V	<I>/mA
7,267925143241882E-002	-2,714688330888748E-002
7,458489388227463E-002	6,889034774576419E-003
7,760376483201981E-002	3,148781447847193E-003
8,064874261617661E-002	3,582243465916693E-003
8,364915847778320E-002	4,370709458453352E-003
8,666166663169861E-002	5,141285506942955E-003
8,965571969747543E-002	5,742551017465264E-003
9,261986613273621E-002	6,197702536337592E-003
9,569729119539261E-002	6,883517349160680E-003
9,863343089818954E-002	7,363710474843771E-003
1,062252819538116E-001	7,691932517120609E-003
1,136679798364639E-001	8,193554544353318E-003
1,166372075676918E-001	8,421091598878216E-003
1,195892617106438E-001	8,731832606827084E-003
1,226259544491768E-001	8,816521373288810E-003
1,256543844938278E-001	9,123016967835906E-003
1,286668926477432E-001	9,375812788554594E-003
1,316424757242203E-001	9,446918034457966E-003
1,346696317195892E-001	9,336121394032188E-003
1,376286894083023E-001	9,669148301084826E-003
1,451803892850876E-001	1,089553786704611E-002
1,526167839765549E-001	1,041925238338690E-002
1,556012779474258E-001	1,059535329926197E-002
1,586424410343170E-001	1,054847373852683E-002
1,616409569978714E-001	1,082342815510251E-002
1,646203696727753E-001	1,095731892055482E-002
1,676379591226578E-001	1,134124843896035E-002
1,706415563821793E-001	1,156023942470102E-002
1,736311465501785E-001	1,137331530238347E-002
1,766054779291153E-001	1,161501359323058E-002
1,796415448188782E-001	1,159060795095379E-002
1,826190501451492E-001	1,134670187687636E-002
1,856487393379211E-001	1,148927293846405E-002
1,886440664529800E-001	1,196078682211617E-002
1,916132867336273E-001	1,233550516396158E-002
1,946321725845337E-001	1,266073532788144E-002
1,976516991853714E-001	1,266264415656532E-002
2,006336599588394E-001	1,236146029599094E-002
2,036257982254028E-001	1,246926898929818E-002
2,066096663475037E-001	1,230988991628693E-002
2,096438109874725E-001	1,249358877903431E-002
2,126639783382416E-001	1,279585680228290E-002
2,156510055065155E-001	1,319383497939272E-002
2,186406254768372E-001	1,328814648756332E-002
2,216467559337616E-001	1,337857383271815E-002
2,246382832527161E-001	1,321979034692050E-002
2,276132404804230E-001	1,333216063164094E-002
2,306715697050095E-001	1,335270433398066E-002
2,336159795522690E-001	1,343485470776321E-002
2,366825938224792E-001	1,374310658902692E-002
2,396352738142014E-001	1,398618482417077E-002
2,426510006189346E-001	1,425326544449490E-002
2,456100136041641E-001	1,426260330275309E-002
2,485976815223694E-001	1,420530341844525E-002
2,516426444053650E-001	1,426347359544405E-002
2,546322643756866E-001	1,415443386625459E-002
2,576307654380798E-001	1,436828920510985E-002
2,606057524681091E-001	1,462662653248120E-002
2,636647522449493E-001	1,493173710744797E-002
2,666473388671875E-001	1,523060856173594E-002
2,696362733840942E-001	1,524968751546116E-002
2,725774943828583E-001	1,543845759576165E-002
2,756142020225525E-001	1,514913692214279E-002
2,786165177822113E-001	1,543228282389467E-002
2,816048264503479E-001	1,554726335659021E-002
2,846498191356659E-001	1,572605922689652E-002
2,876642346382141E-001	1,623333221687062E-002
2,906436622142792E-001	1,646397580188924E-002
2,936657369136810E-001	1,666280632731892E-002
2,966489493846893E-001	1,663928990819835E-002
2,996353507041931E-001	1,661227608977547E-002
3,025670647621155E-001	1,677076282600559E-002
3,055961132049561E-001	1,681456474822574E-002
3,086041808128357E-001	1,722788585114662E-002
3,116625249385834E-001	1,780016307044816E-002
3,146043717861176E-001	1,765379452457030E-002
3,176168799400330E-001	1,795714369194083E-002
3,206255733966827E-001	1,800149701836438E-002
3,236488997936249E-001	1,816876981065439E-002
3,266219198703766E-001	1,805877644825768E-002
3,296599090099335E-001	1,855371945421208E-002
3,326049745082855E-001	1,876791333415895E-002
3,356397747993469E-001	1,929950655491364E-002
3,386637270450592E-001	1,952579829885509E-002
3,416329324245453E-001	1,969903394880629E-002
3,446454703807831E-001	1,981819776968530E-002
3,476605117321014E-001	1,989792824048590E-002
3,506380021572113E-001	1,999134899427493E-002
3,535990118980408E-001	2,020934271616476E-002
3,566394746303558E-001	2,059235996299930E-002
3,596029579639435E-001	2,091884028680699E-002
3,626199960708618E-001	2,124137518136798E-002
3,629643023014069E-001	-9,812067967989303E-005
3,597169518470764E-001	2,475665564967758E-004
3,566955327987671E-001	-2,795476101861524E-003
3,537155091762543E-001	-4,229647224747182E-003
3,507048487663269E-001	-5,101134102127005E-003
3,477241694927216E-001	-5,538925830721075E-003
3,447059094905853E-001	-5,740048115876556E-003
3,416647613048553E-001	-6,377136452101695E-003
3,387133479118347E-001	-6,921675487622743E-003
3,357294797897339E-001	-7,344823546130419E-003
3,325941562652588E-001	-8,066270278504803E-003
3,297038376331329E-001	-8,430399815066852E-003
3,267155289649963E-001	-8,177220121069695E-003
3,237119019031525E-001	-8,402046933770183E-003
3,206783831119537E-001	-8,528085487584269E-003
3,176410496234894E-001	-8,703464725234276E-003
3,146680295467377E-001	-9,084020631235014E-003
3,117255568504334E-001	-9,131536915811027E-003
3,086741864681244E-001	-9,793985593933002E-003
3,056832849979401E-001	-9,863722007503364E-003
3,026777803897858E-001	-9,877495412850573E-003
2,996869385242462E-001	-9,922973787858256E-003
2,966935336589813E-001	-9,851221961192373E-003
2,937013804912567E-001	-9,966713593651838E-003
2,906723320484161E-001	-1,005342665909362E-002
2,877075374126434E-001	-1,033264705911280E-002
2,847338318824768E-001	-1,064287159849001E-002
2,816971540451050E-001	-1,117947369214864E-002
2,786814272403717E-001	-1,091619153582241E-002
2,756982147693634E-001	-1,062527915977024E-002
2,726831734180450E-001	-1,071148323280796E-002
2,696617543697357E-001	-1,057239376714281E-002
2,666956782341003E-001	-1,074764528129890E-002
2,636825442314148E-001	-1,118327230578872E-002
2,606936097145081E-001	-1,138354562329674E-002
2,576874196529388E-001	-1,157061925756957E-002
2,547149956226349E-001	-1,156718078358002E-002
2,517426013946533E-001	-1,165404314560875E-002
2,487389892339706E-001	-1,146489020672259E-002
2,457271069288254E-001	-1,125254154418753E-002
2,426745295524597E-001	-1,158449801926810E-002
2,396963685750961E-001	-1,182959258064029E-002
2,366895973682404E-001	-1,189202797395404E-002
2,337127178907394E-001	-1,211471243708126E-002
2,307326644659042E-001	-1,247037377058094E-002
2,276870608329773E-001	-1,219344635804495E-002
2,247229218482971E-001	-1,196987034260624E-002
2,217053323984146E-001	-1,193827151267515E-002
2,186991572380066E-001	-1,205790090898518E-002
2,156904786825180E-001	-1,234957677237009E-002
2,126907110214233E-001	-1,274653817708891E-002
2,096903026103973E-001	-1,277272536002177E-002
2,067051678895950E-001	-1,280432538781798E-002
2,036729156970978E-001	-1,284248254293438E-002
2,007081210613251E-001	-1,256479085689832E-002
1,977077126502991E-001	-1,270574877016770E-002
1,947162002325058E-001	-1,273607487116049E-002
1,916495710611343E-001	-1,297325316772904E-002
1,886835247278214E-001	-1,338823171718107E-002
1,857213228940964E-001	-1,323241793882818E-002
1,827240735292435E-001	-1,351547916237905E-002
1,797007471323013E-001	-1,352910397060136E-002
1,766990572214127E-001	-1,316444328804209E-002
1,736833602190018E-001	-1,322210434652027E-002
1,707064807415009E-001	-1,347891303121279E-002
1,677060723304749E-001	-1,360756199634727E-002
1,647062748670578E-001	-1,386131527009030E-002
1,616504937410355E-001	-1,411400681317898E-002
1,586659848690033E-001	-1,414363309377223E-002
1,556903868913651E-001	-1,393956183358869E-002
1,527211666107178E-001	-1,392767682543006E-002
1,496768295764923E-001	-1,390779130524603E-002
1,467343270778656E-001	-1,424520238506377E-002
1,437039971351624E-001	-1,437340477459657E-002
1,407264918088913E-001	-1,446553077997426E-002
1,377158910036087E-001	-1,466185642663426E-002
1,347517520189285E-001	-1,454099662344860E-002
1,317303329706192E-001	-1,470222082995559E-002
1,287521719932556E-001	-1,449687566200733E-002
1,256982833147049E-001	-1,447722310307044E-002
1,226717829704285E-001	-1,461985860041748E-002
1,197171881794930E-001	-1,504094759451005E-002
1,166766732931137E-001	-1,514311072727037E-002
1,136832609772682E-001	-1,537264890090834E-002
1,107464879751205E-001	-1,539839184661104E-002
1,077365204691887E-001	-1,534690740336375E-002
1,047182902693748E-001	-1,508252170557781E-002
1,016949564218521E-001	-1,519582607215851E-002
9,872508049011230E-002	-1,528860952469890E-002
9,576793760061264E-002	-1,569690172485322E-002
9,271088242530823E-002	-1,606725023824163E-002
8,972255140542984E-002	-1,610661823130305E-002
8,673740923404694E-002	-1,620557673231812E-002
8,372934907674789E-002	-1,561186522715921E-002
8,075185865163803E-002	-1,592746043813045E-002
7,773424685001373E-002	-1,601179678206482E-002
7,467336207628250E-002	-1,609876557777169E-002
7,171048969030380E-002	-1,639173742854233E-002
6,872344762086868E-002	-1,650843772780109E-002
6,568802148103714E-002	-1,689767218825483E-002
6,309369951486588E-002	-1,626565493643284E-002
6,359205394983292E-002	4,946296135563005E-003
6,680887937545776E-002	2,031541842922022E-003
6,985511630773544E-002	3,770823638630350E-003
7,282371819019318E-002	4,674822559324360E-003
7,583113759756088E-002	5,350387426005895E-003
7,882964611053467E-002	5,271674040704957E-003
8,185806125402451E-002	5,516705025608359E-003
8,483304083347321E-002	5,985438354400687E-003
8,787354081869125E-002	6,451370368934783E-003
9,086696058511734E-002	6,892621613527217E-003
9,385274350643158E-002	7,283999948473757E-003
9,683088958263397E-002	7,266534167805122E-003
9,985358268022537E-002	7,544395661777045E-003
1,029068231582642E-001	7,446455607168903E-003
1,058614179491997E-001	7,751650910116342E-003
1,088351011276245E-001	7,759906303181206E-003
1,118418872356415E-001	8,195596762197976E-003
1,148613989353180E-001	8,541071690706323E-003
1,178484633564949E-001	8,922115706506431E-003
1,208635121583939E-001	9,077248984370574E-003
1,237971037626266E-001	9,166042426841180E-003
1,268318742513657E-001	9,001231041111168E-003
1,298590302467346E-001	8,798920552665863E-003
1,328308135271072E-001	9,236096218228337E-003
1,358503401279449E-001	9,431170354461459E-003
1,388717442750931E-001	9,867731763976456E-003
1,418002545833588E-001	1,017445479337767E-002
1,448674947023392E-001	1,023510746914933E-002
1,478354632854462E-001	1,005210885778068E-002
1,508244127035141E-001	1,009436239328353E-002
1,538241952657700E-001	9,933859792848415E-003
1,568328887224197E-001	1,013576618728013E-002
1,598333120346069E-001	1,046004115657220E-002
1,628413647413254E-001	1,081181970500138E-002
1,658328622579575E-001	1,110152287195290E-002
1,688473075628281E-001	1,124655517802847E-002
1,717808693647385E-001	1,098567185581487E-002
1,748010218143463E-001	1,109524087745137E-002
1,778339147567749E-001	1,108743165823399E-002
1,808279603719711E-001	1,105714746311906E-002
1,838423758745193E-001	1,139139619517671E-002
1,868370622396469E-001	1,153838058441277E-002
1,898470371961594E-001	1,199871034950774E-002
1,928684562444687E-001	1,203618804356665E-002
1,958319693803787E-001	1,204904977724555E-002
1,988374590873718E-001	1,175227907090937E-002
2,018563449382782E-001	1,181324958694559E-002
2,048141062259674E-001	1,198695286038859E-002
2,078482657670975E-001	1,224813374659184E-002
2,108709663152695E-001	1,264486031092621E-002
2,138357609510422E-001	1,284239638747145E-002
2,168520838022232E-001	1,304513171186655E-002
2,198365777730942E-001	1,307963869245822E-002
2,228484600782394E-001	1,286574064700600E-002
2,258450686931610E-001	1,301117575652216E-002
2,288149297237396E-001	1,301170632650617E-002
2,318414449691772E-001	1,320406371705751E-002
2,348584234714508E-001	1,360552329485171E-002
2,378282994031906E-001	1,357057071751724E-002
2,408267855644226E-001	1,383484957162484E-002
2,438303977251053E-001	1,382621279371972E-002
2,468416094779968E-001	1,374737253669688E-002
2,498382031917572E-001	1,358489584927160E-002
2,528392970561981E-001	1,384459120575543E-002
2,558467090129852E-001	1,421056628763237E-002
2,588528394699097E-001	1,452582160782184E-002
2,618507146835327E-001	1,490255704278147E-002
2,648390233516693E-001	1,493152522064825E-002
2,678260803222656E-001	1,486191661642805E-002
2,708316147327423E-001	1,494928837722306E-002
2,738670110702515E-001	1,482066086161155E-002
2,768044471740723E-001	1,515754089681043E-002
2,798290848731995E-001	1,523256188023281E-002
2,828479111194611E-001	1,570889191231498E-002
2,858235239982605E-001	1,618575289503497E-002
2,888233065605164E-001	1,591799357520357E-002
2,918421626091003E-001	1,617161792928529E-002
2,948355972766876E-001	1,593066325282655E-002
2,978741824626923E-001	1,609082537906942E-002
3,008612394332886E-001	1,624996992492622E-002
3,038158416748047E-001	1,668774164742598E-002
3,068073093891144E-001	1,708211210267718E-002
3,098275065422058E-001	1,730250327794536E-002
3,128291964530945E-001	1,770063099162750E-002
3,158099055290222E-001	1,748079092467383E-002
3,188071250915527E-001	1,756005679696199E-002
3,218037188053131E-001	1,764615424363000E-002
3,248404264450073E-001	1,781279068612401E-002
3,278242945671082E-001	1,827967689811588E-002
3,308743536472321E-001	1,854141000015563E-002
3,338295519351959E-001	1,914392839304735E-002
3,368274271488190E-001	1,916880008005442E-002
3,398208618164063E-001	1,893210958090397E-002
3,428626656532288E-001	1,924806515077454E-002
3,458076715469360E-001	1,924110390888622E-002
3,488635122776031E-001	1,960005570460152E-002
3,518359065055847E-001	2,008580806141255E-002
3,548534810543060E-001	2,034673414867327E-002
3,578590154647827E-001	2,077784121380932E-002
3,608320653438568E-001	2,093327258553471E-002
3,632247447967529E-001	2,040683664381504E-002
3,615812063217163E-001	3,836484890412824E-003
3,586826324462891E-001	-2,462330916841889E-003
3,556949496269226E-001	-3,760170769479987E-003
3,526900708675385E-001	-4,232554346344841E-003
3,497195839881897E-001	-5,120446388233786E-003
3,466707766056061E-001	-5,726423619914080E-003
3,436792492866516E-001	-6,429130863822713E-003
3,406858742237091E-001	-7,055098735994171E-003
3,376784622669220E-001	-7,322540205374622E-003
3,346652984619141E-001	-7,777288374866992E-003
3,316501975059509E-001	-7,821239240183769E-003
3,287217319011688E-001	-7,895962194076345E-003
3,256684839725494E-001	-8,525093213878163E-003
3,226362466812134E-001	-8,522057961029825E-003
3,196479380130768E-001	-8,905266201994236E-003
3,166481852531433E-001	-9,237371330285300E-003
3,136770129203796E-001	-9,436074937427014E-003
3,106780052185059E-001	-9,947514971437518E-003
3,077028691768646E-001	-9,438281641390212E-003
3,047203123569489E-001	-9,655957162249248E-003
3,017134964466095E-001	-9,611560293827398E-003
2,986933588981628E-001	-9,902728484060708E-003
2,957158684730530E-001	-1,010391423478726E-002
2,927269041538239E-001	-1,051759704047676E-002
2,897449135780334E-001	-1,070798197761177E-002
2,867515087127686E-001	-1,072196736652888E-002
2,837071716785431E-001	-1,066042224823224E-002
2,807513177394867E-001	-1,051798005513165E-002
2,776987254619598E-001	-1,043697388971246E-002
2,747835814952850E-001	-1,091014365119919E-002
2,717437148094177E-001	-1,110135503113266E-002
2,687069773674011E-001	-1,136599492153135E-002
2,657384276390076E-001	-1,135529941675482E-002
2,627570629119873E-001	-1,123615816213711E-002
2,597337663173676E-001	-1,134517612299531E-002
2,567613124847412E-001	-1,114636700064392E-002
2,537220716476440E-001	-1,128068227577994E-002
2,507350444793701E-001	-1,131637773529898E-002
2,477702647447586E-001	-1,157405667969821E-002
2,447526454925537E-001	-1,193833484709711E-002
2,417847216129303E-001	-1,226048670966218E-002
2,387556433677673E-001	-1,209306546176474E-002
2,357603162527084E-001	-1,208453427486045E-002
2,327484190464020E-001	-1,198020569208884E-002
2,297321110963821E-001	-1,170588860780597E-002
2,267208695411682E-001	-1,198152187462256E-002
2,237592935562134E-001	-1,230950965727970E-002
2,207187563180923E-001	-1,256126868441546E-002
2,178010940551758E-001	-1,263546030968429E-002
2,147586643695831E-001	-1,273151240578346E-002
2,117130458354950E-001	-1,237703858799549E-002
2,088284790515900E-001	-1,256585169176100E-002
2,057650536298752E-001	-1,253913407502599E-002
2,026952505111694E-001	-1,271548922826077E-002
1,997304707765579E-001	-1,293246517428390E-002
1,967466026544571E-001	-1,312102318879621E-002
1,937111765146255E-001	-1,347038190275873E-002
1,906948536634445E-001	-1,353383611373525E-002
1,877421587705612E-001	-1,332439446972183E-002
1,847761273384094E-001	-1,333065542081985E-002
1,817438751459122E-001	-1,305599914242817E-002
1,786969751119614E-001	-1,317902331272003E-002
1,757111996412277E-001	-1,367470816270118E-002
1,727184206247330E-001	-1,370811233124788E-002
1,697778403759003E-001	-1,394134435395245E-002
1,667449623346329E-001	-1,395900062937773E-002
1,637381613254547E-001	-1,399624541894202E-002
1,607403010129929E-001	-1,376006389400571E-002
1,577316224575043E-001	-1,388306706115450E-002
1,547343879938126E-001	-1,398635587344566E-002
1,517696082592011E-001	-1,412205014227459E-002
1,487577408552170E-001	-1,434636783839474E-002
1,457426697015762E-001	-1,444923099964698E-002
1,426996141672134E-001	-1,463193337464568E-002
1,397284716367722E-001	-1,450196936469480E-002
1,367159634828568E-001	-1,438741215194260E-002
1,338052898645401E-001	-1,462406019733559E-002
1,307577639818192E-001	-1,454640812892950E-002
1,277248859405518E-001	-1,492532913883526E-002
1,247219145298004E-001	-1,513069607317449E-002
1,217596903443336E-001	-1,497726030368839E-002
1,187350898981094E-001	-1,521480000010342E-002
1,157518401741982E-001	-1,514432105395828E-002
1,127189621329308E-001	-1,506724157637412E-002
1,097306460142136E-001	-1,491255376337597E-002
1,067461371421814E-001	-1,519603847579371E-002
1,038157269358635E-001	-1,547668007854852E-002
1,007465720176697E-001	-1,575231377634430E-002
9,773152321577072E-002	-1,603862210164758E-002
9,478711336851120E-002	-1,596765551415349E-002
9,175232052803040E-002	-1,593100513042983E-002
8,874680101871490E-002	-1,562682693159631E-002
8,576293289661407E-002	-1,562035489077973E-002
8,280581235885620E-002	-1,609698267481380E-002
7,977356016635895E-002	-1,631370230267445E-002
7,675341516733170E-002	-1,654706120704455E-002
7,377781718969345E-002	-1,673680882728754E-002
7,075830549001694E-002	-1,631446689195093E-002
6,779098510742188E-002	-1,664232649636685E-002
6,474856287240982E-002	-1,642064132950805E-002
6,317007541656494E-002	-1,631149463355541E-002
6,490513682365417E-002	-2,552567520190974E-003
6,789410114288330E-002	3,421655510040492E-003
7,087923586368561E-002	4,073663127352732E-003
7,380900532007217E-002	4,540295881361109E-003
7,690361887216568E-002	4,913656480675866E-003
7,990276813507080E-002	5,547583402706835E-003
8,288409560918808E-002	6,199060325222203E-003
8,587177842855453E-002	6,477473515951709E-003
8,886455744504929E-002	6,881988846604792E-003
9,190635383129120E-002	7,005735472618346E-003
9,489212930202484E-002	6,972098126364776E-003
9,783081710338593E-002	7,111994813082390E-003
1,009057089686394E-001	7,228185691201372E-003
1,038711071014404E-001	7,658953166234522E-003
1,068638935685158E-001	7,946066434184718E-003
1,098503023386002E-001	8,050543324619283E-003
1,128418073058128E-001	8,443004658086797E-003
1,158390566706657E-001	8,534598833527224E-003
1,188101917505264E-001	8,522163217397412E-003
1,218316107988358E-001	8,404847334046908E-003
1,248243972659111E-001	8,639245290396513E-003
1,279094666242599E-001	9,002844009167663E-003
1,308774352073669E-001	9,368480448029043E-003
1,338816583156586E-001	9,723463384762043E-003
1,368419677019119E-001	9,699864488356982E-003
1,398678570985794E-001	9,835622169763802E-003
1,428574621677399E-001	9,794854517470725E-003
1,458394229412079E-001	9,668583098330928E-003
1,488735675811768E-001	9,897824445336809E-003
1,518205255270004E-001	1,001301754137482E-002
1,548724919557571E-001	1,015261767218666E-002
1,578500121831894E-001	1,063745828602501E-002
1,608606129884720E-001	1,051931418029806E-002
1,638629287481308E-001	1,071568292876084E-002
1,668646186590195E-001	1,066538639473336E-002
1,698714047670364E-001	1,064773032849192E-002
1,728591173887253E-001	1,081844055297551E-002
1,758226007223129E-001	1,111054227634062E-002
1,788771301507950E-001	1,140894700377737E-002
1,818571686744690E-001	1,165875282373841E-002
1,848499476909637E-001	1,182906071881007E-002
1,878859996795654E-001	1,164665592878011E-002
1,908272355794907E-001	1,161830274431858E-002
1,938620358705521E-001	1,165771303955505E-002
1,968465298414230E-001	1,168687146649364E-002
1,997954100370407E-001	1,183981947579016E-002
2,028518319129944E-001	1,225473345075442E-002
2,058815360069275E-001	1,265956772149371E-002
2,088163793087006E-001	1,259846969818074E-002
2,118543535470963E-001	1,231449527088746E-002
2,148598581552505E-001	1,255961117773648E-002
2,178316414356232E-001	1,240670570611353E-002
2,207894176244736E-001	1,266854498086711E-002
2,238706648349762E-001	1,278263491888842E-002
2,268475592136383E-001	1,314052491288753E-002
2,298288494348526E-001	1,346603000771815E-002
2,328502833843231E-001	1,371046667833678E-002
2,358755469322205E-001	1,360125827292602E-002
2,388218343257904E-001	1,351613599229801E-002
2,418458014726639E-001	1,337778890119806E-002
2,448634058237076E-001	1,355408093004373E-002
2,478810101747513E-001	1,391407193380775E-002
2,508654892444611E-001	1,392829086289565E-002
2,538251876831055E-001	1,439379854042880E-002
2,568650841712952E-001	1,432845522831488E-002
2,598858773708344E-001	1,454878402510081E-002
2,628639936447144E-001	1,424766218418275E-002
2,658752501010895E-001	1,449159089133903E-002
2,688495814800262E-001	1,451030790291646E-002
2,718570232391357E-001	1,490576129193263E-002
2,748720645904541E-001	1,516715391335313E-002
2,778196632862091E-001	1,538179530216446E-002
2,808283269405365E-001	1,551965498098679E-002
2,838637530803680E-001	1,563465610682521E-002
2,868476510047913E-001	1,564987169707216E-002
2,898677885532379E-001	1,571239311997488E-002
2,928605973720551E-001	1,576572494753545E-002
2,958437800407410E-001	1,618458562285627E-002
2,988773286342621E-001	1,652967920163065E-002
3,018503785133362E-001	1,656930012565377E-002
3,048635125160217E-001	1,698729182025996E-002
3,078206479549408E-001	1,683967158326902E-002
3,108611702919006E-001	1,709817720984579E-002
3,138583898544312E-001	1,684399934165415E-002
3,168359100818634E-001	1,732219704608723E-002
3,198815286159515E-001	1,769706631615314E-002
3,228564560413361E-001	1,803258852584508E-002
3,259103596210480E-001	1,827173996074022E-002
3,288382291793823E-001	1,860095932352126E-002
3,318055570125580E-001	1,866086886317736E-002
3,348365128040314E-001	1,858981694555659E-002
3,378649353981018E-001	1,869465435459763E-002
3,408901691436768E-001	1,913388947517275E-002
3,438352048397064E-001	1,926883999985868E-002
3,468821048736572E-001	1,973980318798568E-002
3,499035239219666E-001	2,020915226433625E-002
3,528524041175842E-001	2,002148287477512E-002
3,558559715747833E-001	2,042644357885970E-002
3,588748574256897E-001	2,036095318180742E-002
3,618211746215820E-001	2,050299312662290E-002
3,632247447967529E-001	2,026995643973351E-002
3,607060313224792E-001	-3,420807564680217E-003
3,577221632003784E-001	-2,593611110129734E-003
3,546708524227142E-001	-3,678783782136924E-003
3,516971170902252E-001	-4,817840055420672E-003
3,487075269222260E-001	-5,712289473619125E-003
3,457294106483459E-001	-6,361517323845586E-003
3,426812589168549E-001	-6,760726429880987E-003
3,397444486618042E-001	-6,875177735309976E-003
3,367078006267548E-001	-7,377823899211461E-003
3,336997032165527E-001	-7,517698980094176E-003
3,307145833969116E-001	-8,077900557206391E-003
3,277008235454559E-001	-8,460938216497502E-003
3,247220218181610E-001	-8,708282098511211E-003
3,217152357101440E-001	-9,062543532369674E-003
3,187351822853088E-001	-9,371643817454846E-003
3,157519698143005E-001	-9,221327728967804E-003
3,127413690090179E-001	-9,305494913678505E-003
3,096893429756165E-001	-9,219353915371667E-003
3,066985607147217E-001	-9,701733405260392E-003
3,036879003047943E-001	-1,006896119906739E-002
3,007511496543884E-001	-1,003630015378197E-002
2,977405488491058E-001	-1,027142069227314E-002
2,947210371494293E-001	-1,040628763536613E-002
2,917588055133820E-001	-1,040333708127342E-002
2,887437343597412E-001	-1,030380541693983E-002
2,857254743576050E-001	-1,027920899505255E-002
2,827098071575165E-001	-1,053635814302351E-002
2,796966731548309E-001	-1,096109786873663E-002
2,766930460929871E-001	-1,116466037286348E-002
2,737142741680145E-001	-1,129772338887659E-002
2,707583904266357E-001	-1,121769462636925E-002
2,676822543144226E-001	-1,110269189351434E-002
2,647168338298798E-001	-1,107482754572026E-002
2,617126107215881E-001	-1,122877297045001E-002
2,587153613567352E-001	-1,128494825449402E-002
2,557066679000854E-001	-1,159784665566498E-002
2,527132332324982E-001	-1,182464751060858E-002
2,497160285711288E-001	-1,157844961696053E-002
2,467512339353561E-001	-1,188481270473857E-002
2,437209039926529E-001	-1,186917217661781E-002
2,407370507717133E-001	-1,168982338288821E-002
2,377276867628098E-001	-1,176399496459149E-002
2,347037494182587E-001	-1,190102639896699E-002
2,317593544721603E-001	-1,213453329328325E-002
2,287073433399200E-001	-1,255014766029486E-002
2,256878316402435E-001	-1,270937698476099E-002
2,227459698915482E-001	-1,263346583036762E-002
2,197162955999374E-001	-1,251266956351177E-002
2,166986763477325E-001	-1,240278132002761E-002
2,137358337640762E-001	-1,229168389848684E-002
2,106876522302628E-001	-1,273819751865324E-002
2,077196836471558E-001	-1,282176911809070E-002
2,046944797039032E-001	-1,310483073430077E-002
2,017169594764709E-001	-1,324566039159739E-002
1,987025439739227E-001	-1,307098119080666E-002
1,956938654184341E-001	-1,304392352443150E-002
1,927316337823868E-001	-1,287945109858510E-002
1,896720081567764E-001	-1,299545142028363E-002
1,867511421442032E-001	-1,299415663270342E-002
1,837093532085419E-001	-1,352002017435245E-002
1,806745529174805E-001	-1,379266126702225E-002
1,776754111051559E-001	-1,398900822168789E-002
1,747080981731415E-001	-1,398346906741305E-002
1,717248558998108E-001	-1,376532708733672E-002
1,687378138303757E-001	-1,358684937052507E-002
1,657144874334335E-001	-1,338897400673883E-002
1,626918017864227E-001	-1,366817213080743E-002
1,597391068935394E-001	-1,407256042305866E-002
1,566979438066483E-001	-1,431527778271025E-002
1,536943316459656E-001	-1,433599024518725E-002
1,507238596677780E-001	-1,435763733182582E-002
1,476852446794510E-001	-1,415411706778591E-002
1,447586566209793E-001	-1,436319754126689E-002
1,417276859283447E-001	-1,414433353226435E-002
1,387476325035095E-001	-1,445625626899220E-002
1,356791108846664E-001	-1,467117299871457E-002
1,327378898859024E-001	-1,485850065667665E-002
1,297349333763123E-001	-1,523345299707818E-002
1,267071366310120E-001	-1,515026262992858E-002
1,237130761146545E-001	-1,502938080921010E-002
1,207311227917671E-001	-1,502021363218470E-002
1,177370697259903E-001	-1,489839866735564E-002
1,147016510367393E-001	-1,491004922694023E-002
1,116573140025139E-001	-1,540221234996958E-002
1,087396219372749E-001	-1,556810492220384E-002
1,057398393750191E-001	-1,578673722457701E-002
1,027693375945091E-001	-1,557877981928563E-002
9,975174069404602E-002	-1,557765492398175E-002
9,672331809997559E-002	-1,535997971914188E-002
9,372480958700180E-002	-1,568622843757717E-002
9,074603021144867E-002	-1,565865986412969E-002
8,770423382520676E-002	-1,609602752044637E-002
8,469809591770172E-002	-1,646762773137506E-002
8,176323026418686E-002	-1,625697663160583E-002
7,875263690948486E-002	-1,654884414468442E-002
7,573757320642471E-002	-1,637477972083916E-002
7,269641757011414E-002	-1,619810583518599E-002
6,972273439168930E-002	-1,648401094450189E-002
6,671468168497086E-002	-1,643214363818209E-002
6,374730169773102E-002	-1,693319886012777E-002
6,307460367679596E-002	-1,533421501517296E-002
6,593561172485352E-002	5,166072832071218E-003
6,888066232204437E-002	3,915919026136794E-003
7,187215983867645E-002	4,140746267512440E-003
7,490058988332748E-002	4,837744981159624E-003
7,786599546670914E-002	5,661970437237568E-003
8,088678866624832E-002	5,888050106174589E-003
8,388147503137589E-002	5,899404135864948E-003
8,684434741735458E-002	6,185626895118423E-003
8,994214981794357E-002	6,287535733342071E-003
9,293683618307114E-002	6,554850206399968E-003
9,592580050230026E-002	6,989500331959178E-003
9,887720644474030E-002	7,398536125644256E-003
1,019145399332047E-001	7,895070245043212E-003
1,048786789178848E-001	7,983948317329737E-003
1,078657284379005E-001	8,042691340779125E-003
1,108699664473534E-001	8,110856721395991E-003
1,138831153512001E-001	7,979406945560177E-003
1,169153526425362E-001	8,206123320451328E-003
1,198718547821045E-001	8,420657583398425E-003
1,228958293795586E-001	8,737631362237180E-003
1,258414983749390E-001	9,215851086567750E-003
1,288673877716064E-001	9,652177599612843E-003
1,318913549184799E-001	9,361837924855849E-003
1,348421275615692E-001	9,117189515382040E-003
1,378571838140488E-001	9,249042509145516E-003
1,409136205911636E-001	9,421917530441234E-003
1,438955664634705E-001	9,607717163817142E-003
1,468832641839981E-001	1,004584883800517E-002
1,498919576406479E-001	1,024947502725506E-002
1,529229432344437E-001	1,047203185529119E-002
1,558469682931900E-001	1,042044070260702E-002
1,588238328695297E-001	1,040766428814094E-002
1,618528962135315E-001	1,044777446222722E-002
1,648412197828293E-001	1,033854435615161E-002
1,678498983383179E-001	1,052515076517013E-002
1,709228903055191E-001	1,099021256098543E-002
1,738831996917725E-001	1,109067862210694E-002
1,768416166305542E-001	1,132671093097695E-002
1,798885017633438E-001	1,154334662375431E-002
1,828602701425552E-001	1,116491293299379E-002
1,858505159616470E-001	1,110716776602205E-002
1,888961046934128E-001	1,130283582206174E-002
1,919143646955490E-001	1,154029056172776E-002
1,948906034231186E-001	1,197460153064939E-002
1,978814601898193E-001	1,221235364804064E-002
2,008640468120575E-001	1,221292641142408E-002
2,038759142160416E-001	1,230505166446769E-002
2,068763673305511E-001	1,221428483768253E-002
2,098710387945175E-001	1,216700189822102E-002
2,128924876451492E-001	1,237631644047127E-002
2,158559858798981E-001	1,242130663352625E-002
2,188793122768402E-001	1,278868359052771E-002
2,218962758779526E-001	1,298617652306956E-002
2,248489558696747E-001	1,294252216794123E-002
2,278493642807007E-001	1,317743106434745E-002
2,308956086635590E-001	1,318784999372539E-002
2,338801324367523E-001	1,291970867277997E-002
2,368970960378647E-001	1,309118399525082E-002
2,398720681667328E-001	1,344033015314683E-002
2,429246604442596E-001	1,363357925317055E-002
2,458417117595673E-001	1,395074346777012E-002
2,489204108715057E-001	1,419728182663674E-002
2,518654465675354E-001	1,411041946375918E-002
2,548696994781494E-001	1,408777505566830E-002
2,578707337379456E-001	1,411071642590594E-002
2,608577907085419E-001	1,416508765784479E-002
2,638314962387085E-001	1,448827977110347E-002
2,668980956077576E-001	1,485758799802472E-002
2,699156999588013E-001	1,509659075745736E-002
2,728314697742462E-001	1,515575834904065E-002
2,758796215057373E-001	1,500179203891699E-002
2,788399457931519E-001	1,513209593322246E-002
2,818499207496643E-001	1,516354630027004E-002
2,848694324493408E-001	1,512250322120962E-002
2,878978550434113E-001	1,562784485455881E-002
2,908950746059418E-001	1,617335937832357E-002
2,938560247421265E-001	1,639625588068153E-002
2,968921363353729E-001	1,661868358908883E-002
2,998524308204651E-001	1,635860806951916E-002
3,028388321399689E-001	1,648260780663507E-002
3,058704137802124E-001	1,654701644062392E-002
3,088765740394592E-001	1,689387243241069E-002
3,118349909782410E-001	1,707581019521368E-002
3,148137927055359E-001	1,740878409909788E-002
3,178625702857971E-001	1,786270560975638E-002
3,207910656929016E-001	1,790661365436493E-002
3,238048255443573E-001	1,794612830441716E-002
3,268027305603027E-001	1,791333990707555E-002
3,298273086547852E-001	1,816448402945155E-002
3,328118324279785E-001	1,827294968497883E-002
3,358390033245087E-001	1,870515883953588E-002
3,388375043869019E-001	1,938700481393120E-002
3,418105542659760E-001	1,938153096101219E-002
3,448542654514313E-001	1,980911356707418E-002
3,478457033634186E-001	1,975820190734037E-002
3,508156239986420E-001	1,960105213026203E-002
3,538071215152740E-001	1,998795357115646E-002
3,567801415920258E-001	2,019603610339504E-002
3,597958683967590E-001	2,060969792607165E-002
3,627457320690155E-001	2,116454585787628E-002
3,629318773746490E-001	-3,361696317976080E-004
3,597061038017273E-001	-9,306999296730483E-005
3,566261529922485E-001	-3,028856029777677E-003
3,537167310714722E-001	-4,553900040233809E-003
3,507055044174194E-001	-5,224413451166282E-003
3,476796448230743E-001	-5,703503786874845E-003
3,447294831275940E-001	-6,140254998535953E-003
3,416883051395416E-001	-6,643495569005599E-003
3,386967778205872E-001	-7,039372955781206E-003
3,356474041938782E-001	-7,714258234348861E-003
3,326788246631622E-001	-8,316096857015483E-003
3,296752274036407E-001	-8,454889715054981E-003
3,266887962818146E-001	-8,242859567205087E-003
3,237068355083466E-001	-8,738672281773052E-003
3,207019567489624E-001	-8,774856374354101E-003
3,176958262920380E-001	-8,821991134815660E-003
3,146813511848450E-001	-9,085675870422485E-003
3,116714060306549E-001	-9,568373442076908E-003
3,086346983909607E-001	-9,970469662342440E-003
3,056641817092896E-001	-1,002407617973702E-002
3,027006983757019E-001	-1,007282376588894E-002
2,996684908866882E-001	-1,008059106146299E-002
2,967049777507782E-001	-1,017341671746784E-002
2,936899065971375E-001	-9,962511898023274E-003
2,906850576400757E-001	-1,016435497986094E-002
2,876909673213959E-001	-1,049060327204646E-002
2,846823036670685E-001	-1,098072847865600E-002
2,816869318485260E-001	-1,130408994104073E-002
2,786820828914642E-001	-1,111629547316020E-002
2,757236957550049E-001	-1,081449517829848E-002
2,726717293262482E-001	-1,097612326557276E-002
2,696948349475861E-001	-1,088679959248111E-002
2,666715085506439E-001	-1,104004367649994E-002
2,636730074882507E-001	-1,124763935525455E-002
2,606923282146454E-001	-1,154916337594236E-002
2,577478885650635E-001	-1,174487392684875E-002
2,546806335449219E-001	-1,175312878670712E-002
2,517158687114716E-001	-1,171295587058313E-002
2,486957460641861E-001	-1,163001965687724E-002
2,457112073898315E-001	-1,158806363891929E-002
2,427152544260025E-001	-1,171480209983807E-002
2,396881133317947E-001	-1,187931654846272E-002
2,367048710584641E-001	-1,195147145517692E-002
2,336936444044113E-001	-1,239959809051166E-002
2,307212352752686E-001	-1,259284708285124E-002
2,277137786149979E-001	-1,231263001609476E-002
2,246917337179184E-001	-1,199155974512299E-002
2,216753959655762E-001	-1,221002120910270E-002
2,186705172061920E-001	-1,215025955425517E-002
2,156713902950287E-001	-1,264220878353323E-002
2,126957774162292E-001	-1,297263836616669E-002
2,096985727548599E-001	-1,300960657839215E-002
2,066841423511505E-001	-1,303742947056888E-002
2,036830782890320E-001	-1,300022703241360E-002
2,006699144840240E-001	-1,272975090505498E-002
1,977535486221313E-001	-1,287493060481210E-002
1,947072893381119E-001	-1,288322875661835E-002
1,916979402303696E-001	-1,318207906709484E-002
1,887090057134628E-001	-1,344752659121390E-002
1,856933087110519E-001	-1,338615091881360E-002
1,827119886875153E-001	-1,366490383043130E-002
1,796924620866776E-001	-1,355843237761286E-002
1,766525804996490E-001	-1,330366128883417E-002
1,737329810857773E-001	-1,334370700642465E-002
1,707077622413635E-001	-1,356917079538109E-002
1,676844209432602E-001	-1,365611741275641E-002
1,646719127893448E-001	-1,411689324025545E-002
1,616689562797546E-001	-1,434337588240545E-002
1,586717218160629E-001	-1,421612743009362E-002
1,556388288736343E-001	-1,422260104324469E-002
1,527122557163239E-001	-1,405876513805800E-002
1,497315764427185E-001	-1,389465474191334E-002
1,466948688030243E-001	-1,423571591039940E-002
1,437090784311295E-001	-1,450319944184837E-002
1,406806558370590E-001	-1,471268347304433E-002
1,377056986093521E-001	-1,489918348646213E-002
1,347199082374573E-001	-1,445958801984179E-002
1,317080408334732E-001	-1,476767020042943E-002
1,286923587322235E-001	-1,475741977471140E-002
1,256339997053146E-001	-1,439273893811328E-002
1,226571425795555E-001	-1,485934967046584E-002
1,196942776441574E-001	-1,503882519985683E-002
1,166773140430450E-001	-1,538495774584586E-002
1,136603429913521E-001	-1,559637355821902E-002
1,107095703482628E-001	-1,561309671136160E-002
1,077384278178215E-001	-1,551290645960157E-002
1,046851873397827E-001	-1,519400178379628E-002
1,017484143376350E-001	-1,527630089343196E-002
9,870471060276031E-002	-1,546082739878326E-002
9,574376046657562E-002	-1,580681225605074E-002
9,271788597106934E-002	-1,606264488364098E-002
8,968435227870941E-002	-1,634937702838214E-002
8,672723174095154E-002	-1,628819481265962E-002
8,375163376331329E-002	-1,584337818361134E-002
8,072511851787567E-002	-1,614768280208714E-002
7,774887979030609E-002	-1,598232004362216E-002
7,470772415399551E-002	-1,616848042940550E-002
7,168885320425034E-002	-1,661902685445965E-002
6,870562583208084E-002	-1,667541209050494E-002
6,571093201637268E-002	-1,697672497308905E-002
6,326554715633392E-002	-1,644965074956417E-002
6,362579017877579E-002	4,841607553502571E-003
6,678787618875504E-002	1,761384024928252E-003
6,983921676874161E-002	3,655014408529202E-003
7,285236567258835E-002	4,626287690462041E-003
7,584768533706665E-002	5,162231541271461E-003
7,883028686046600E-002	5,274751578811743E-003
8,185233920812607E-002	5,381859647665493E-003
8,485212922096252E-002	5,951419065483299E-003
8,785507827997208E-002	6,292713940274558E-003
9,090960770845413E-002	6,853360213426687E-003
9,383174031972885E-002	7,224217336200434E-003
9,687352180480957E-002	7,117787955394306E-003
9,987013041973114E-002	7,476718132117349E-003
1,028043553233147E-001	7,380900238907390E-003
1,058677732944489E-001	7,638940499540101E-003
1,088452860713005E-001	7,833695267921381E-003
1,118597090244293E-001	8,157906342603410E-003
1,148817762732506E-001	8,443131381864089E-003
1,178115457296371E-001	8,750597835872509E-003
1,208304092288017E-001	8,848156103461735E-003
1,238251104950905E-001	8,955944115829562E-003
1,268236190080643E-001	8,819230704345205E-003
1,298418492078781E-001	8,682984562013496E-003
1,328651905059814E-001	9,076103533395028E-003
1,358573436737061E-001	9,328413620035766E-003
1,388634592294693E-001	9,665632434189303E-003
1,418492645025253E-001	9,967007949611223E-003
1,448483914136887E-001	1,008816555913655E-002
1,478405445814133E-001	9,902959472189346E-003
1,508225053548813E-001	9,992623635965481E-003
1,538292765617371E-001	9,915204894059573E-003
1,568195223808289E-001	1,022352100553692E-002
1,598377525806427E-001	1,035458840172698E-002
1,628413647413254E-001	1,062538301594032E-002
1,658666133880615E-001	1,097410458472346E-002
1,688301116228104E-001	1,114246038462927E-002
1,705970466136932E-001	1,163806114345789E-002