File: fig_si_ecsa/ZrO2/50.txt
C:\EC-lab data\Neethu\2024_10_01_Ni90Fe10_ZrO2\CV_ECSA\CV_ECSA_03_CV_C01.mpr
Ewe/V	<I>/mA
6,530869007110596E-002	-3,321301937103271E-002
6,723829358816147E-002	-4,074014242077166E-003
7,165023684501648E-002	-3,997375921850690E-003
7,462583482265472E-002	-3,280043745487793E-003
7,921282202005386E-002	-4,955814361740848E-004
8,298004418611526E-002	-1,588353370287621E-004
8,669263124465942E-002	2,853817309440062E-004
8,968309313058853E-002	4,627394175966189E-004
9,271065890789032E-002	6,420114894657089E-004
9,572762995958328E-002	8,088181912171422E-004
9,871595352888107E-002	9,490593041240024E-004
1,016947329044342E-001	1,085437850128483E-003
1,046565398573875E-001	1,236107873612330E-003
1,077000275254250E-001	1,356444341682726E-003
1,106894239783287E-001	1,411436162622223E-003
1,136607676744461E-001	1,510189718121386E-003
1,166809201240540E-001	1,592792409812523E-003
1,197190955281258E-001	1,707078858594793E-003
1,226490810513496E-001	1,766445160885477E-003
1,256936192512512E-001	1,866227931309876E-003
1,287031620740891E-001	1,986176072528503E-003
1,316978484392166E-001	2,037935021487816E-003
1,346861869096756E-001	2,058407292780530E-003
1,376914829015732E-001	2,129829440794626E-003
1,406978368759155E-001	2,199439804017965E-003
1,436988860368729E-001	2,273060141508027E-003
1,466840207576752E-001	2,337954878789281E-003
1,496914625167847E-001	2,399384843051348E-003
1,527009904384613E-001	2,476266493330409E-003
1,556659936904907E-001	2,546190670828861E-003
1,586924940347672E-001	2,570812784445785E-003
1,616458296775818E-001	2,609261234586796E-003
1,646903455257416E-001	2,656941128306146E-003
1,676829308271408E-001	2,720460682313484E-003
1,706839650869370E-001	2,787509217846998E-003
1,736967116594315E-001	2,814994592578543E-003
1,766563951969147E-001	2,905137106709942E-003
1,797094345092773E-001	3,004860788779411E-003
1,827136576175690E-001	2,994996007853652E-003
1,856765449047089E-001	3,018647220920281E-003
1,886775940656662E-001	3,066517256229417E-003
1,917231827974319E-001	3,126728964667161E-003
1,946499943733215E-001	3,176870446016736E-003
1,976966559886932E-001	3,219635901081765E-003
2,006659060716629E-001	3,288539601271633E-003
2,036987692117691E-001	3,351075092925595E-003
2,066956162452698E-001	3,368696471524261E-003
2,096785902976990E-001	3,399200689980508E-003
2,126722633838654E-001	3,450723590706029E-003
2,156732827425003E-001	3,499503426307157E-003
2,186987549066544E-001	3,558721054004219E-003
2,217125147581100E-001	3,590815895222484E-003
2,246616184711456E-001	3,621109692378208E-003
2,276955693960190E-001	3,721991701645000E-003
2,306700795888901E-001	3,762351659639139E-003
2,336997687816620E-001	3,759665445411675E-003
2,367347776889801E-001	3,819531955539593E-003
2,396690100431442E-001	3,873361809585030E-003
2,427220195531845E-001	3,928555296119574E-003
2,457252144813538E-001	3,976997043840448E-003
2,486753165721893E-001	4,032973286990066E-003
2,516912519931793E-001	4,088562729318956E-003
2,546604871749878E-001	4,129421417423586E-003
2,577082216739655E-001	4,151926670601824E-003
2,607029080390930E-001	4,198036129512037E-003
2,636816799640656E-001	4,259796233479114E-003
2,666806280612946E-001	4,322914374319645E-003
2,696721255779266E-001	4,363484775240088E-003
2,726615071296692E-001	4,442940196087083E-003
2,756317853927612E-001	4,447466083042348E-003
2,786827087402344E-001	4,540457899970037E-003
2,816954553127289E-001	4,560513402490574E-003
2,847049832344055E-001	4,620037934121982E-003
2,877059876918793E-001	4,672174640695123E-003
2,907187640666962E-001	4,741668241978119E-003
2,936784327030182E-001	4,798267489402679E-003
2,967123687267303E-001	4,881387512998325E-003
2,996783852577209E-001	4,954003458907313E-003
3,026455342769623E-001	4,980529498021094E-003
3,056773543357849E-001	5,028200466767913E-003
3,086763024330139E-001	5,083812006180077E-003
3,117113113403320E-001	5,149782722178836E-003
3,146699070930481E-001	5,198880211537478E-003
3,176783919334412E-001	5,280290900069914E-003
3,206751942634583E-001	5,349462933534395E-003
3,236762881278992E-001	5,433549020381179E-003
3,266974389553070E-001	5,458228768677337E-003
3,296391069889069E-001	5,513340806727614E-003
3,326624631881714E-001	5,586552747748427E-003
3,356699049472809E-001	5,652248436591543E-003
3,386730253696442E-001	5,721887242543758E-003
3,416645526885986E-001	5,786056705498331E-003
3,446688055992126E-001	5,868676048622665E-003
3,476550281047821E-001	5,947924603080738E-003
3,506878614425659E-001	5,997398912263151E-003
3,536591827869415E-001	6,029979167780961E-003
3,566560149192810E-001	6,093555506393199E-003
3,596539199352264E-001	6,171184951300451E-003
3,626889288425446E-001	6,233661760133041E-003
3,626941740512848E-001	2,360383964135810E-003
3,596761822700500E-001	1,505532380178917E-003
3,566815257072449E-001	1,065438612992394E-003
3,536815047264099E-001	7,281617851933554E-004
3,506687581539154E-001	4,669608464003740E-004
3,477101325988770E-001	2,418401449833464E-004
3,446868658065796E-001	6,535967198652119E-005
3,417176008224487E-001	-5,619089410736748E-005
3,386719822883606E-001	-2,129949354588868E-004
3,356857597827911E-001	-3,347037984945511E-004
3,326731026172638E-001	-4,808764484399348E-004
3,296868801116943E-001	-5,934271028612172E-004
3,266497254371643E-001	-6,735671182064411E-004
3,236985206604004E-001	-8,248807927076179E-004
3,206433653831482E-001	-9,007436873010484E-004
3,176327943801880E-001	-9,693441987413537E-004
3,146614134311676E-001	-1,044369799425720E-003
3,116752207279205E-001	-1,134932535327000E-003
3,086593151092529E-001	-1,227869504671405E-003
3,056964576244354E-001	-1,294836674282530E-003
3,026932775974274E-001	-1,371784606211193E-003
2,996900677680969E-001	-1,470808745580140E-003
2,967112958431244E-001	-1,531613591194195E-003
2,937187850475311E-001	-1,556914837743124E-003
2,907049655914307E-001	-1,607515374416825E-003
2,877166271209717E-001	-1,681415200740343E-003
2,847208678722382E-001	-1,736034808042554E-003
2,817049920558929E-001	-1,808235986876142E-003
2,787071168422699E-001	-1,865518932390835E-003
2,756912112236023E-001	-1,880430970534988E-003
2,727071344852448E-001	-1,990428028572445E-003
2,697007358074188E-001	-1,996760949219193E-003
2,666975855827332E-001	-2,042683917453450E-003
2,636784911155701E-001	-2,102824724918018E-003
2,607240974903107E-001	-2,151773732799078E-003
2,576901316642761E-001	-2,202659779262213E-003
2,546583414077759E-001	-2,266083089125449E-003
2,516838014125824E-001	-2,336233697254407E-003
2,487326413393021E-001	-2,356814702984081E-003
2,457379251718521E-001	-2,373742915046429E-003
2,427305281162262E-001	-2,413742209884925E-003
2,397199273109436E-001	-2,464794623746353E-003
2,366965860128403E-001	-2,510297401992524E-003
2,336987107992172E-001	-2,547710150085737E-003
2,307273596525192E-001	-2,614516563779843E-003
2,276859879493713E-001	-2,661846402285530E-003
2,247167825698853E-001	-2,672433544527543E-003
2,217008769512177E-001	-2,712776613407176E-003
2,186902463436127E-001	-2,740025904333573E-003
2,157136201858521E-001	-2,783375559374683E-003
2,127019315958023E-001	-2,837757354225482E-003
2,097072601318359E-001	-2,870701962213692E-003
2,066817879676819E-001	-2,923701568862361E-003
2,036796957254410E-001	-2,985165295993082E-003
2,006775736808777E-001	-3,021161512960032E-003
1,977369785308838E-001	-3,020980139909720E-003
1,947030276060104E-001	-3,044807265218358E-003
1,917348504066467E-001	-3,103818814351039E-003
1,887285113334656E-001	-3,148084676366916E-003
1,857051700353622E-001	-3,164058856580387E-003
1,826998889446259E-001	-3,221506917018092E-003
1,796935200691223E-001	-3,312638406391150E-003
1,767009645700455E-001	-3,312028941258582E-003
1,736945807933807E-001	-3,312894659959261E-003
1,706511080265045E-001	-3,340056332793502E-003
1,676967144012451E-001	-3,391653583296125E-003
1,647094488143921E-001	-3,434706351375397E-003
1,616383939981461E-001	-3,470918157795998E-003
1,586659699678421E-001	-3,517819931504268E-003
1,556723564863205E-001	-3,562093810817006E-003
1,526755392551422E-001	-3,590391816639255E-003
1,497317701578140E-001	-3,588498538900035E-003
1,467094868421555E-001	-3,639242216094213E-003
1,437042057514191E-001	-3,657641855574580E-003
1,406872272491455E-001	-3,702371766242635E-003
1,376352757215500E-001	-3,747568900709861E-003
1,347084492444992E-001	-3,755619981651151E-003
1,316925585269928E-001	-3,849714605571042E-003
1,287052780389786E-001	-3,893722862307589E-003
1,257243901491165E-001	-3,875824843311818E-003
1,226511970162392E-001	-3,901410873772366E-003
1,197010651230812E-001	-3,940114616044502E-003
1,166787967085838E-001	-3,977044990582108E-003
1,137339696288109E-001	-4,004134783624773E-003
1,107000112533569E-001	-4,047580179758363E-003
1,076989695429802E-001	-4,120800096845609E-003
1,046819984912872E-001	-4,135835025711739E-003
1,016936749219894E-001	-4,132896543726186E-003
9,871808439493179E-002	-4,176354339304231E-003
9,571596235036850E-002	-4,207474836827402E-003
9,270641952753067E-002	-4,243345548376153E-003
8,970430493354797E-002	-4,278062843998968E-003
8,674991875886917E-002	-4,327786590794039E-003
8,371385931968689E-002	-4,319020829926634E-003
8,072234690189362E-002	-4,409213236309981E-003
7,774569839239120E-002	-4,414759942139586E-003
7,469160109758377E-002	-4,436137896846035E-003
7,171282917261124E-002	-4,479307725382041E-003
6,869585812091827E-002	-4,515771007896130E-003
6,569267809391022E-002	-4,554220401284191E-003
6,330373883247375E-002	-4,640863626264036E-003
6,388928741216660E-002	-1,187415643395678E-003
6,691262871026993E-002	-7,473422615981266E-004
6,990943104028702E-002	-4,421867607409995E-004
7,286380976438522E-002	-2,117092425982670E-004
7,587335258722305E-002	2,094765789371813E-006
7,890305668115616E-002	1,859083799868383E-004
8,192532509565353E-002	2,929642218103065E-004
8,489349484443665E-002	4,070463797284495E-004
8,787544816732407E-002	5,310516136837074E-004
9,094440191984177E-002	6,567820466645783E-004
9,388498961925507E-002	7,727803950324940E-004
9,688285738229752E-002	8,722564622682238E-004
9,990937262773514E-002	9,950917508629452E-004
1,029252856969833E-001	1,053582661572568E-003
1,058923974633217E-001	1,170757846618169E-003
1,089199632406235E-001	1,212063157254311E-003
1,119029894471169E-001	1,309597423035790E-003
1,148891970515251E-001	1,403354910608969E-003
1,179072260856628E-001	1,482547923337230E-003
1,208923682570457E-001	1,546916344624253E-003
1,238976567983627E-001	1,646448170605355E-003
1,268626302480698E-001	1,723867327806751E-003
1,298955231904984E-001	1,767483210844349E-003
1,329209804534912E-001	1,806477064848072E-003
1,358806788921356E-001	1,871798635369896E-003
1,388976275920868E-001	1,955692285567544E-003
1,418965607881546E-001	2,006758073750670E-003
1,449496001005173E-001	2,068449750570135E-003
1,478933691978455E-001	2,102217671361165E-003
1,508498787879944E-001	2,223267886115030E-003
1,539029181003571E-001	2,239847728964788E-003
1,568869799375534E-001	2,297462920776334E-003
1,599082052707672E-001	2,343661012976860E-003
1,629028618335724E-001	2,400102075019594E-003
1,658615022897720E-001	2,459693938766985E-003
1,688954234123230E-001	2,507684917873128E-003
1,718614995479584E-001	2,589994068734492E-003
1,748848259449005E-001	2,646715411376347E-003
1,778911799192429E-001	2,681594045093855E-003
1,808954328298569E-001	2,703902864797991E-003
1,839325428009033E-001	2,753328461444146E-003
1,868879646062851E-001	2,822461113181719E-003
1,898943483829498E-001	2,878837791286060E-003
1,928763091564178E-001	2,912082303939523E-003
1,959007084369659E-001	2,982147821361060E-003
1,988646239042282E-001	2,997888467588292E-003
2,018762826919556E-001	3,068599582750013E-003
2,048688679933548E-001	3,091617650271578E-003
2,079314291477203E-001	3,142088324239012E-003
2,109123468399048E-001	3,208281960016594E-003
2,139155119657516E-001	3,252448645879570E-003
2,169229537248611E-001	3,295450219108414E-003
2,199282348155975E-001	3,373818053660216E-003
2,228741347789764E-001	3,418747847616838E-003
2,258847057819366E-001	3,448886910822090E-003
2,288773059844971E-001	3,471222189343991E-003
2,319154590368271E-001	3,519045600923063E-003
2,348879128694534E-001	3,597633685583596E-003
2,379027605056763E-001	3,626019906732862E-003
2,409080266952515E-001	3,683359430296067E-003
2,438963800668716E-001	3,749332779989359E-003
2,469408810138702E-001	3,811303138314147E-003
2,499164789915085E-001	3,821206684531522E-003
2,529186010360718E-001	3,869679872069459E-003
2,559345364570618E-001	3,921198148923902E-003
2,588761448860168E-001	3,972893982993116E-003
2,618867754936218E-001	4,030191924458568E-003
2,648761570453644E-001	4,086256586257761E-003
2,679016292095184E-001	4,147843325578535E-003
2,709291875362396E-001	4,228915451272387E-003
2,739026546478271E-001	4,252783187338446E-003
2,768930792808533E-001	4,286232013934473E-003
2,798464000225067E-001	4,330468431564663E-003
2,828729450702667E-001	4,407423570632521E-003
2,858994305133820E-001	4,467573795409394E-003
2,888898849487305E-001	4,504219514880489E-003
2,919164299964905E-001	4,602987959919563E-003
2,949143052101135E-001	4,664469139243017E-003
2,978835105895996E-001	4,708411528958505E-003
3,009206056594849E-001	4,745851741770611E-003
3,038749992847443E-001	4,790771840715857E-003
3,068983852863312E-001	4,884448858421013E-003
3,098898530006409E-001	4,944646454532645E-003
3,128898441791534E-001	5,005448760736428E-003
3,158792257308960E-001	5,084663672379173E-003
3,188389539718628E-001	5,158272666449200E-003
3,218813538551331E-001	5,199982814600761E-003
3,248526751995087E-001	5,241109804450819E-003
3,278664648532867E-001	5,312581383299819E-003
3,309004306793213E-001	5,378332937349748E-003
3,338845372200012E-001	5,469830981989304E-003
3,369067609310150E-001	5,526231491886503E-003
3,398972153663635E-001	5,540981031420755E-003
3,428802490234375E-001	5,683014147507524E-003
3,458983302116394E-001	5,717959990660243E-003
3,488791882991791E-001	5,765954661506451E-003
3,518918752670288E-001	5,832787740574649E-003
3,548738658428192E-001	5,898870496619368E-003
3,578802645206451E-001	5,982747577945702E-003
3,608250319957733E-001	6,047625395795980E-003
3,633774816989899E-001	6,134237894522276E-003
3,607030808925629E-001	1,497924214062454E-003
3,576828539371490E-001	1,054671960749454E-003
3,546712398529053E-001	7,056902324317610E-004
3,516702055931091E-001	4,165176241410036E-004
3,486818671226501E-001	1,938321813731313E-004
3,457030653953552E-001	1,884521219489939E-005
3,426712751388550E-001	-1,747447276912630E-004
3,396935760974884E-001	-2,780805394245866E-004
3,366638422012329E-001	-4,663817303228106E-004
3,336744606494904E-001	-5,662265442272962E-004
3,306998908519745E-001	-6,714661573015389E-004
3,276532888412476E-001	-7,764138826031617E-004
3,246850967407227E-001	-8,887567192788180E-004
3,216532766819000E-001	-9,812727717467698E-004
3,186787068843842E-001	-1,093816479725420E-003
3,156702816486359E-001	-1,197844596188380E-003
3,126384317874908E-001	-1,264884299012517E-003
3,097052872180939E-001	-1,323173560902231E-003
3,067073822021484E-001	-1,381301885986530E-003
3,036904633045197E-001	-1,455180480863617E-003
3,006724417209625E-001	-1,529325128305772E-003
2,977021038532257E-001	-1,594900642885470E-003
2,947424352169037E-001	-1,668047048345511E-003
2,917053103446960E-001	-1,753346694183869E-003
2,887095808982849E-001	-1,778989179304823E-003
2,856936454772949E-001	-1,842640485038918E-003
2,827201783657074E-001	-1,877305107579248E-003
2,796787917613983E-001	-1,943085782740024E-003
2,766618430614471E-001	-2,005240921385442E-003
2,736915647983551E-001	-2,046178518260902E-003
2,706916034221649E-001	-2,112410981377861E-003
2,676979303359985E-001	-2,186659299291526E-003
2,647128105163574E-001	-2,225631015688921E-003
2,616969048976898E-001	-2,242628233943826E-003
2,586703598499298E-001	-2,265638247586643E-003
2,556756734848022E-001	-2,334773789496262E-003
2,526926398277283E-001	-2,386160459435707E-003
2,497234344482422E-001	-2,411874572014007E-003
2,466746568679810E-001	-2,481010902758700E-003
2,436831593513489E-001	-2,536943418413602E-003
2,407064735889435E-001	-2,585629671860556E-003
2,377298474311829E-001	-2,590181756709676E-003
2,346895188093185E-001	-2,627540654632162E-003
2,317107468843460E-001	-2,675849404113237E-003
2,286555767059326E-001	-2,721673145464995E-003
2,257086336612701E-001	-2,759545859791806E-003
2,227012217044830E-001	-2,810643514951332E-003
2,197097092866898E-001	-2,872326392510624E-003
2,167054712772369E-001	-2,897273746485639E-003
2,136853337287903E-001	-2,907205706934389E-003
2,107118517160416E-001	-2,946839964149843E-003
2,077574729919434E-001	-2,981944025224136E-003
2,046609520912170E-001	-3,039960598269109E-003
2,016853392124176E-001	-3,057995119080351E-003
1,987012773752213E-001	-3,089272044033142E-003
1,957044452428818E-001	-3,176083640331243E-003
1,926970332860947E-001	-3,201445992696481E-003
1,897002160549164E-001	-3,205146580916730E-003
1,867427676916122E-001	-3,241011029176274E-003
1,837331205606461E-001	-3,268904707713068E-003
1,807246506214142E-001	-3,324582097371187E-003
1,776715964078903E-001	-3,349152704888385E-003
1,746981143951416E-001	-3,397794786805103E-003
1,716875284910202E-001	-3,457280233002777E-003
1,686843186616898E-001	-3,494272332318332E-003
1,656991988420486E-001	-3,483961953154181E-003
1,627278476953506E-001	-3,513143059737753E-003
1,596758812665939E-001	-3,563864798100742E-003
1,567310392856598E-001	-3,606305748083582E-003
1,537225693464279E-001	-3,620997471241741E-003
1,507002860307693E-001	-3,677208795529130E-003
1,477045416831970E-001	-3,680301745690590E-003
1,447353065013886E-001	-3,758737057675404E-003
1,417109221220016E-001	-3,773365226152230E-003
1,387257874011993E-001	-3,782344865410570E-003
1,357204616069794E-001	-3,828548108382769E-003
1,326854676008224E-001	-3,862422211265452E-003
1,296907812356949E-001	-3,906498711633812E-003
1,266833692789078E-001	-3,949327687021442E-003
1,236547231674194E-001	-4,003947216713433E-003
1,207046061754227E-001	-4,026171329719035E-003
1,177215799689293E-001	-4,036198923939895E-003
1,146971881389618E-001	-4,057431454889904E-003
1,116791591048241E-001	-4,091212062727784E-003
1,086834073066711E-001	-4,132745144387523E-003
1,056717485189438E-001	-4,177354119342946E-003
1,027046367526054E-001	-4,188134493031417E-003
9,971630573272705E-002	-4,276314896641334E-003
9,672585874795914E-002	-4,260964298332996E-003
9,372480213642120E-002	-4,307683506744462E-003
9,073647856712341E-002	-4,319840270101030E-003
8,768238127231598E-002	-4,371755920955261E-003
8,471527695655823E-002	-4,396971264617987E-003
8,173861354589462E-002	-4,437027037460625E-003
7,873544842004776E-002	-4,485433180282911E-003
7,568771392107010E-002	-4,541644480114987E-003
7,270257174968719E-002	-4,565571266236149E-003
6,970470398664474E-002	-4,568980395965302E-003
6,669726967811584E-002	-4,589422511344289E-003
6,373931467533112E-002	-4,624744813099810E-003
6,320826709270477E-002	-4,097095225006342E-003
6,589104980230331E-002	-8,932726589484380E-004
6,888680905103683E-002	-6,287583807736332E-004
7,187194377183914E-002	-3,505549629557610E-004
7,491862028837204E-002	-1,545120926951745E-004
7,793875783681870E-002	2,498989799882959E-005
8,092390745878220E-002	1,810264024781657E-004
8,391966670751572E-002	2,863031388010820E-004
8,688252419233322E-002	4,765550224369189E-004
8,991753309965134E-002	5,806468291969687E-004
9,289842844009399E-002	6,720151434112462E-004
9,593237191438675E-002	7,724550132479665E-004
9,890159964561462E-002	8,788281918694144E-004
1,018941700458527E-001	9,802309457679972E-004
1,048994660377502E-001	1,071182746373876E-003
1,078952103853226E-001	1,172276132314846E-003
1,109196022152901E-001	1,269178112529014E-003
1,138888373970985E-001	1,339469341069679E-003
1,168697401881218E-001	1,381825145674358E-003
1,198697239160538E-001	1,454979600970952E-003
1,228675991296768E-001	1,536423819743508E-003
1,259238272905350E-001	1,624839660507860E-003
1,288633346557617E-001	1,687711013295888E-003
1,318951696157455E-001	1,769407424035310E-003
1,349110603332520E-001	1,800481881724006E-003
1,378909051418304E-001	1,890643090822170E-003
1,408749818801880E-001	1,917680877846179E-003
1,439142376184464E-001	1,980573487445431E-003
1,468877047300339E-001	2,064125839044413E-003
1,499163508415222E-001	2,124038527553140E-003
1,529014855623245E-001	2,178988875433180E-003
1,558686047792435E-001	2,253057585726817E-003
1,589311957359314E-001	2,320042555260853E-003
1,618919223546982E-001	2,337471984194262E-003
1,648834347724915E-001	2,377128212376397E-003
1,678961515426636E-001	2,437074567650493E-003
1,708643287420273E-001	2,502578367057143E-003
1,738971918821335E-001	2,534993357484278E-003
1,769035607576370E-001	2,602109363376980E-003
1,798982471227646E-001	2,698004990937395E-003
1,829152256250381E-001	2,739593208187018E-003
1,858589798212051E-001	2,744010885685890E-003
1,888971775770187E-001	2,794058839653085E-003
1,919194459915161E-001	2,833902617971451E-003
1,948992908000946E-001	2,886256592925449E-003
1,978929191827774E-001	2,953485729247217E-003
2,008780688047409E-001	2,995423298772160E-003
2,038918435573578E-001	3,070405491800762E-003
2,068419903516769E-001	3,128517743890481E-003
2,099098712205887E-001	3,154464461759848E-003
2,128695398569107E-001	3,179521617615443E-003
2,158483266830444E-001	3,227492419480581E-003
2,188971042633057E-001	3,287541365554918E-003
2,218843996524811E-001	3,327950923954229E-003
2,248960286378860E-001	3,357612320946326E-003
2,279363572597504E-001	3,442944697477903E-003
2,308790534734726E-001	3,546112382537117E-003
2,339151352643967E-001	3,536040963000323E-003
2,368822395801544E-001	3,555048858793791E-003
2,398620843887329E-001	3,604950838659238E-003
2,429055422544479E-001	3,674794653003743E-003
2,459034323692322E-001	3,726156377322511E-003
2,489013075828552E-001	3,772751450216872E-003
2,519002258777618E-001	3,850433121947924E-003
2,549065649509430E-001	3,901245011648936E-003
2,578959763050079E-001	3,923673137453284E-003
2,608652114868164E-001	3,960551744563015E-003
2,638492584228516E-001	4,021426809130285E-003
2,668991088867188E-001	4,076348480238162E-003
2,698662281036377E-001	4,136246004135410E-003
2,729277610778809E-001	4,185548127376634E-003
2,758927643299103E-001	4,224206804792636E-003
2,788513898849487E-001	4,324587967453731E-003
2,818916738033295E-001	4,376683244319973E-003
2,848980724811554E-001	4,392267355190910E-003
2,878948748111725E-001	4,447849938312898E-003
2,909128665924072E-001	4,521248231968561E-003
2,938821017742157E-001	4,573340521245780E-003
2,968958914279938E-001	4,643452471807724E-003
2,999245524406433E-001	4,721751133022034E-003
3,028630018234253E-001	4,794268256874692E-003
3,058831393718719E-001	4,833117132673417E-003
3,088948428630829E-001	4,864354118682173E-003
3,118502795696259E-001	4,922400261016785E-003
3,148852586746216E-001	4,996646744176478E-003
3,178725242614746E-001	5,071263873105678E-003
3,208491504192352E-001	5,127781805236348E-003
3,238470554351807E-001	5,218795310308166E-003
3,268183767795563E-001	5,224740315396867E-003
3,298671841621399E-001	5,330617565454740E-003
3,329021930694580E-001	5,374866467819754E-003
3,358629643917084E-001	5,437541489502304E-003
3,388693034648895E-001	5,504853698868023E-003
3,418798744678497E-001	5,587609144842867E-003
3,448904752731323E-001	5,653945569873836E-003
3,479042947292328E-001	5,743828205191280E-003
3,508714437484741E-001	5,822421376150369E-003
3,538713455200195E-001	5,839837058980862E-003
3,568628728389740E-001	5,892382967027116E-003
3,598512411117554E-001	5,974250946666072E-003
3,627890646457672E-001	6,031085793893012E-003
3,616716265678406E-001	1,701549664984571E-003
3,586652576923370E-001	1,161820681874006E-003
3,556906878948212E-001	7,175047687976821E-004
3,526673316955566E-001	4,787833387985716E-004
3,496843576431274E-001	2,432133959473495E-004
3,466822504997253E-001	5,650739537246504E-005
3,436546325683594E-001	-1,279039761862399E-004
3,406535387039185E-001	-3,050848078929537E-004
3,376917839050293E-001	-4,362781793234814E-004
3,346758782863617E-001	-5,787272216366531E-004
3,316578567028046E-001	-7,124663767273075E-004
3,286652565002441E-001	-8,207911057777672E-004
3,256801068782806E-001	-8,838314498057619E-004
3,226674497127533E-001	-9,785333869432276E-004
3,196313679218292E-001	-1,067686615493179E-003
3,166716694831848E-001	-1,164728333909204E-003
3,136779963970184E-001	-1,224226288791715E-003
3,106630742549896E-001	-1,370580534473382E-003
3,076780438423157E-001	-1,389285762242147E-003
3,046791255474091E-001	-1,491035182678187E-003
3,016939759254456E-001	-1,526840397875477E-003
2,987046241760254E-001	-1,598440205068776E-003
2,956844270229340E-001	-1,665776313732041E-003
2,926833927631378E-001	-1,727466316070708E-003
2,896971702575684E-001	-1,791304255372474E-003
2,867268919944763E-001	-1,869949077142039E-003
2,837364673614502E-001	-1,940314526008373E-003
2,806887030601501E-001	-1,986487718669286E-003
2,776802480220795E-001	-2,007928312296930E-003
2,746855318546295E-001	-2,059448586805956E-003
2,717173993587494E-001	-2,096613800353621E-003
2,686813175678253E-001	-2,161975305271981E-003
2,656654119491577E-001	-2,208146568793590E-003
2,626982927322388E-001	-2,244171063769798E-003
2,597036063671112E-001	-2,333671119736713E-003
2,567396759986877E-001	-2,354204362846835E-003
2,536866366863251E-001	-2,389905245258367E-003
2,506558597087860E-001	-2,423737664988333E-003
2,476855814456940E-001	-2,477079594933047E-003
2,447015196084976E-001	-2,535714492195324E-003
2,417195439338684E-001	-2,574089213440956E-003
2,386760860681534E-001	-2,621462285282570E-003
2,357461005449295E-001	-2,683222343774914E-003
2,327354997396469E-001	-2,718098030931690E-003
2,297068536281586E-001	-2,740137222644979E-003
2,267015874385834E-001	-2,755785118400419E-003
2,237217128276825E-001	-2,800362093290043E-003
2,206495851278305E-001	-2,854969279926282E-003
2,176930755376816E-001	-2,879763753501009E-003
2,147005349397659E-001	-2,940523515159527E-003
2,117280960083008E-001	-2,948876197883175E-003
2,087174952030182E-001	-3,033854146956901E-003
2,056634128093719E-001	-3,036703969377819E-003
2,027079612016678E-001	-3,059939525377964E-003
1,997196525335312E-001	-3,104545809037504E-003
1,966729760169983E-001	-3,153327338926221E-003
1,937016397714615E-001	-3,180528837118703E-003
1,906867623329163E-001	-3,231125966016810E-003
1,876899749040604E-001	-3,294920616099262E-003
1,847133040428162E-001	-3,319760124213637E-003
1,817472726106644E-001	-3,325113526645707E-003
1,786984652280808E-001	-3,350580712423022E-003
1,756921112537384E-001	-3,393132109421368E-003
1,726581752300262E-001	-3,428485546262669E-003
1,696942448616028E-001	-3,474096098822561E-003
1,667091101408005E-001	-3,506178738057815E-003
1,636560559272766E-001	-3,574513095170720E-003
1,606762260198593E-001	-3,572242258087499E-003
1,577271521091461E-001	-3,614071113083300E-003
1,546995788812637E-001	-3,626226832542059E-003
1,517250239849091E-001	-3,675420743295214E-003
1,487102061510086E-001	-3,709643087657026E-003
1,457197517156601E-001	-3,754281250116436E-003
1,427356749773026E-001	-3,792706484697775E-003
1,397324949502945E-001	-3,849099999570171E-003
1,366646140813828E-001	-3,877052978673926E-003
1,337165832519531E-001	-3,865494056905533E-003
1,307218968868256E-001	-3,906102728958812E-003
1,276869028806686E-001	-3,943814554077121E-003
1,246996298432350E-001	-3,990551909535289E-003
1,216879636049271E-001	-3,999132635120377E-003
1,187389045953751E-001	-4,059602682698615E-003
1,157166212797165E-001	-4,105996842554298E-003
1,126763224601746E-001	-4,143660397757109E-003
1,097070947289467E-001	-4,143938153396837E-003
1,066752746701241E-001	-4,170223738280257E-003
1,036837697029114E-001	-4,205314595310483E-003
1,007325723767281E-001	-4,247766469133111E-003
9,769544005393982E-002	-4,293906478980919E-003
9,474743157625198E-002	-4,326056765421533E-003
9,174956381320953E-002	-4,373469781664086E-003
8,874426782131195E-002	-4,412788898965406E-003
8,571562170982361E-002	-4,409383650151241E-003
8,271986991167068E-002	-4,436901004939695E-003
7,974003255367279E-002	-4,470649501147089E-003
7,668593525886536E-002	-4,523128189450464E-003
7,371352612972260E-002	-4,540791881380665E-003
7,071460038423538E-002	-4,558845826573392E-003
6,773582100868225E-002	-4,642362588330978E-003
6,469869613647461E-002	-4,650801236291746E-003
6,317007541656494E-002	-4,729153122752905E-003
6,487372517585754E-002	-1,026921577710655E-003
6,790448725223541E-002	-7,090682095167722E-004
7,092887908220291E-002	-4,608586829009356E-004
7,390129566192627E-002	-2,248386520780823E-004
7,687370479106903E-002	-6,452588640747255E-005
7,990340888500214E-002	1,049681063736644E-004
8,291506022214890E-002	2,498099268627299E-004
8,591081202030182E-002	3,804833658907444E-004
8,887580037117004E-002	5,109259602704688E-004
9,190550446510315E-002	6,415507893204157E-004
9,493625909090042E-002	7,581831211306714E-004
9,794473648071289E-002	8,296406643542786E-004
1,008906364440918E-001	9,112140362756485E-004
1,039330735802650E-001	1,007998318123603E-003
1,069012358784676E-001	1,101498588064310E-003
1,098555997014046E-001	1,177878777727733E-003
1,129033416509628E-001	1,276627961589030E-003
1,158895418047905E-001	1,366385165359444E-003
1,188980191946030E-001	1,461602612228795E-003
1,218958944082260E-001	1,493993768538836E-003
1,248958781361580E-001	1,559930005290276E-003
1,278969347476959E-001	1,620448427274825E-003
1,308831572532654E-001	1,702949423512718E-003
1,339319348335266E-001	1,771678128534406E-003
1,369085907936096E-001	1,844940419080864E-003
1,399096399545670E-001	1,925092751359145E-003
1,429414749145508E-001	1,994369542141318E-003
1,459414511919022E-001	2,031530537957842E-003
1,488767415285110E-001	2,060741657664446E-003
1,519064307212830E-001	2,121175239153686E-003
1,548979729413986E-001	2,184270374022568E-003
1,579255163669586E-001	2,256565434840423E-003
1,608767360448837E-001	2,277421318164373E-003
1,638353317975998E-001	2,379138188795586E-003
1,668491214513779E-001	2,438301969555658E-003
1,699445694684982E-001	2,471694917403507E-003
1,728406399488449E-001	2,497388722582008E-003
1,758979111909866E-001	2,555142912266717E-003
1,789000332355499E-001	2,624131702961899E-003
1,818979084491730E-001	2,671230651079298E-003
1,849339455366135E-001	2,714528214508193E-003
1,878798604011536E-001	2,795826574381682E-003
1,908618062734604E-001	2,855014288797981E-003
1,939000040292740E-001	2,876454816335659E-003
1,968967914581299E-001	2,899151777859918E-003
1,998766660690308E-001	2,955163963431720E-003
2,029158771038055E-001	3,005820282447124E-003
2,058681696653366E-001	3,058632293686969E-003
2,088829725980759E-001	3,107322132968382E-003
2,118861824274063E-001	3,134751733240505E-003
2,148638963699341E-001	3,232873123933028E-003
2,178893536329269E-001	3,256657940962936E-003
2,209381461143494E-001	3,287849069642530E-003
2,238617539405823E-001	3,330431239090936E-003
2,269020527601242E-001	3,392599676671049E-003
2,298702299594879E-001	3,453103962480469E-003
2,329190224409103E-001	3,495941696706341E-003
2,359136790037155E-001	3,558946582011738E-003
2,389073371887207E-001	3,617424942098706E-003
2,419147640466690E-001	3,644867966310507E-003
2,448967099189758E-001	3,668701106815012E-003
2,478415518999100E-001	3,719236293060636E-003
2,508638203144073E-001	3,786597945589977E-003
2,538903355598450E-001	3,843085884606495E-003
2,569051682949066E-001	3,883527163351455E-003
2,598892450332642E-001	3,950882327545632E-003
2,628945708274841E-001	3,973512443432522E-003
2,658903002738953E-001	4,055037913025847E-003
2,688648402690887E-001	4,082447976139117E-003
2,718839049339294E-001	4,135209002318646E-003
2,749072611331940E-001	4,202221417977457E-003
2,778351306915283E-001	4,250501645906811E-003
2,808870673179626E-001	4,317604311735432E-003
2,838998138904572E-001	4,390857800899539E-003
2,869125306606293E-001	4,470780987402501E-003
2,898701429367065E-001	4,485353848091723E-003
2,928902506828308E-001	4,527474408354881E-003
2,959029674530029E-001	4,590903451672724E-003
2,988552153110504E-001	4,656647892261410E-003
3,018902540206909E-001	4,703313684230055E-003
3,049072027206421E-001	4,781693049153546E-003
3,078806698322296E-001	4,820074125746046E-003
3,108635544776917E-001	4,954349152997362E-003
3,138923346996307E-001	4,958500180186501E-003
3,168700635433197E-001	5,024939640861717E-003
3,198742568492889E-001	5,071522857178948E-003
3,228657841682434E-001	5,149251497237481E-003
3,259198963642120E-001	5,232134318955851E-003
3,288679122924805E-001	5,287152134163392E-003
3,318625688552856E-001	5,374849762221090E-003
3,348827064037323E-001	5,452505224740084E-003
3,379018306732178E-001	5,484553788442592E-003
3,408657908439636E-001	5,531412409456815E-003
3,439007699489594E-001	5,585904571893896E-003
3,468731641769409E-001	5,680721630698035E-003
3,498784601688385E-001	5,747037990254809E-003
3,528848588466644E-001	5,791549658978434E-003
3,558731377124786E-001	5,893685678731539E-003
3,588678240776062E-001	5,939157390255606E-003
3,618508577346802E-001	6,018376738211387E-003
3,626825213432312E-001	2,140022392236721E-003
3,596719503402710E-001	1,303603019853956E-003
3,566528856754303E-001	8,664194493677412E-004
3,536963760852814E-001	5,480629042722285E-004
3,506708741188049E-001	2,689982737567537E-004
3,476719260215759E-001	3,907519652557372E-005
3,447313606739044E-001	-1,190773430121473E-004
3,416741192340851E-001	-2,494802106159299E-004
3,386889398097992E-001	-3,973691814786030E-004
3,356942236423492E-001	-5,189631247806883E-004
3,326815366744995E-001	-6,680714603943556E-004
3,296709656715393E-001	-7,831510323133735E-004
3,266444206237793E-001	-8,477450158655593E-004
3,237228989601135E-001	-1,008403598765048E-003
3,206667304039001E-001	-1,086353318492501E-003
3,176412582397461E-001	-1,157315679443446E-003
3,146391510963440E-001	-1,217288499598599E-003
3,116773068904877E-001	-1,300237710994323E-003
3,086995780467987E-001	-1,399489165932109E-003
3,057070672512054E-001	-1,464581810978411E-003
3,026805520057678E-001	-1,548947613729170E-003
2,996826767921448E-001	-1,636824905896588E-003
2,966996133327484E-001	-1,679417697333619E-003
2,936816215515137E-001	-1,716832339702205E-003
2,907208800315857E-001	-1,772429866731626E-003
2,877060174942017E-001	-1,834996182878967E-003
2,847208380699158E-001	-1,897096520123234E-003
2,816731631755829E-001	-1,968032355964364E-003
2,786996960639954E-001	-2,025375608657963E-003
2,756657600402832E-001	-2,041624638473474E-003
2,726689279079437E-001	-2,132856715130999E-003
2,697060704231262E-001	-2,157563856599150E-003
2,666795551776886E-001	-2,203909412451643E-003
2,636753022670746E-001	-2,240561690794288E-003
2,606869935989380E-001	-2,303629349019801E-003
2,577240765094757E-001	-2,355089454593125E-003
2,547071576118469E-001	-2,412327244302202E-003
2,517336606979370E-001	-2,479473148317389E-003
2,487421929836273E-001	-2,499571363740766E-003
2,457432299852371E-001	-2,519435193486661E-003
2,426838576793671E-001	-2,556569598002368E-003
2,396987080574036E-001	-2,598804104006071E-003
2,367295026779175E-001	-2,639347378741747E-003
2,336859852075577E-001	-2,691495481889827E-003
2,306785583496094E-001	-2,752750247357945E-003
2,276605367660522E-001	-2,798243564029690E-003
2,246743291616440E-001	-2,797407079924590E-003
2,216743528842926E-001	-2,839916647644701E-003
2,187008559703827E-001	-2,870739884504772E-003
2,156722545623779E-001	-2,927276583351249E-003
2,127093523740768E-001	-2,973619578672988E-003
2,096775621175766E-001	-2,999459170193097E-003
2,066977024078369E-001	-3,043676261465102E-003
2,036860585212708E-001	-3,110527823486732E-003
2,006924003362656E-001	-3,154615708707655E-003
1,977242380380630E-001	-3,139673738688635E-003
1,946637928485870E-001	-3,170885181841897E-003
1,916839480400085E-001	-3,227189271961438E-003
1,887242645025253E-001	-3,265312941544418E-003
1,857316941022873E-001	-3,279494679898354E-003
1,826892793178558E-001	-3,340359618151621E-003
1,796956360340118E-001	-3,425988267635044E-003
1,767009496688843E-001	-3,430916257760446E-003
1,736861020326614E-001	-3,431131107289620E-003
1,706818491220474E-001	-3,455242847040699E-003
1,676776111125946E-001	-3,500686552393342E-003
1,646691411733627E-001	-3,549880442935499E-003
1,616458147764206E-001	-3,581788729611110E-003
1,586871743202209E-001	-3,627534698251911E-003
1,556521952152252E-001	-3,675341213036323E-003
1,527083963155746E-001	-3,702978478233691E-003
1,496946364641190E-001	-3,703447924635839E-003
1,467232853174210E-001	-3,738428318279641E-003
1,437116265296936E-001	-3,771566619333380E-003
1,406723707914352E-001	-3,814257626193751E-003
1,377275586128235E-001	-3,853043654897997E-003
1,347190737724304E-001	-3,858686292005573E-003
1,317232996225357E-001	-3,945707717826319E-003
1,287180185317993E-001	-3,995993672611383E-003
1,256670951843262E-001	-3,974827206548057E-003
1,226936280727386E-001	-4,002415712926047E-003
1,196893975138664E-001	-4,045698402478579E-003
1,167180389165878E-001	-4,080925256049445E-003
1,136628910899162E-001	-4,122301571543280E-003
1,107084974646568E-001	-4,159829949154863E-003
1,077339723706245E-001	-4,213883005933075E-003
1,046841219067574E-001	-4,242440762027407E-003
1,016523018479347E-001	-4,236869828067327E-003
9,870428591966629E-002	-4,267331579790638E-003
9,574779123067856E-002	-4,307366379685422E-003
9,270217269659042E-002	-4,356880272502556E-003
8,972658216953278E-002	-4,377490307686235E-003
8,672552555799484E-002	-4,428898342464654E-003
8,371491730213165E-002	-4,426323261415940E-003
8,075100183486938E-002	-4,510594651138594E-003
7,769902050495148E-002	-4,506052986673437E-003
7,470220327377319E-002	-4,530077228183542E-003
7,167886942625046E-002	-4,569339964089300E-003
6,869903951883316E-002	-4,603385554219123E-003
6,571707129478455E-002	-4,641162730776052E-003
6,322736293077469E-002	-4,738352843560278E-003
6,386170536279678E-002	-1,284922385985331E-003
6,688610464334488E-002	-8,446253322441973E-004
6,990731507539749E-002	-5,421588942529820E-004
7,288609445095062E-002	-3,063068205367211E-004
7,589986920356750E-002	-9,530414659852937E-005
7,891684770584106E-002	8,258849480253356E-005
8,192107826471329E-002	2,045033784586149E-004
8,491046726703644E-002	3,138087748387397E-004
8,792424201965332E-002	4,361233292608357E-004
9,089454263448715E-002	5,724276590828806E-004
9,393060952425003E-002	6,761879144505695E-004
9,689771384000778E-002	7,589153065560416E-004
9,985315799713135E-002	9,100397752364285E-004
1,028934568166733E-001	9,619013353080333E-004
1,058987602591515E-001	1,081761172523930E-003
1,089093536138535E-001	1,128912296533398E-003
1,118552535772324E-001	1,215184621388397E-003
1,149082854390144E-001	1,312157280557990E-003
1,179220750927925E-001	1,389172390898044E-003
1,209125071763992E-001	1,470299206125169E-003
1,238923445343971E-001	1,559247299054631E-003
1,268647611141205E-001	1,641163029489693E-003
1,298594474792480E-001	1,680611364665515E-003
1,328955292701721E-001	1,723596738277900E-003
1,359241455793381E-001	1,801795852871792E-003
1,389092952013016E-001	1,854198517220441E-003
1,419093012809753E-001	1,924636501421950E-003
1,449061036109924E-001	1,987279693316350E-003
1,478976011276245E-001	2,017327615451203E-003
1,508487910032272E-001	2,135546138662098E-003
1,538594216108322E-001	2,159088645081905E-003
1,568456143140793E-001	2,206638648810148E-003
1,598848700523376E-001	2,258134103006662E-003
1,628753095865250E-001	2,317241238617700E-003
1,659028828144073E-001	2,385444629908320E-003
1,688911914825439E-001	2,437738706956027E-003
1,705970466136932E-001	2,545492490753531E-003