File: fig_si_ecsa/ZrO2/500.txt
C:\EC-lab data\Neethu\2024_10_01_Ni90Fe10_ZrO2\CV_ECSA\CV_ECSA_07_CV_C01.mpr
Ewe/V	<I>/mA
7,863681018352509E-002	-2,062489464879036E-002
8,104483783245087E-002	1,479801868261653E-003
8,370961993932724E-002	3,218389902233158E-003
8,661201596260071E-002	6,773522497294633E-003
8,962686359882355E-002	9,442346854585698E-003
9,261731058359146E-002	1,099849634900038E-002
9,564594179391861E-002	1,196583659313752E-002
9,864169359207153E-002	1,269623196195527E-002
1,016353219747543E-001	1,268049192711060E-002
1,046278849244118E-001	1,303815611734332E-002
1,076374351978302E-001	1,332716552961859E-002
1,106151565909386E-001	1,376031001644959E-002
1,136554554104805E-001	1,432839118772082E-002
1,166819706559181E-001	1,457951947425805E-002
1,196395233273506E-001	1,467516104195157E-002
1,226151213049889E-001	1,434572277220370E-002
1,256278455257416E-001	1,486138533194512E-002
1,436416208744049E-001	1,644494942108096E-002
1,466691642999649E-001	1,691403246816964E-002
1,496575176715851E-001	1,691509557895191E-002
1,526468992233276E-001	1,716201698400255E-002
1,556277722120285E-001	1,728264920812866E-002
1,586277633905411E-001	1,719208682435336E-002
1,616235375404358E-001	1,742521214772647E-002
1,645885407924652E-001	1,752921822642539E-002
1,676171571016312E-001	1,764666489058683E-002
1,706033647060394E-001	1,807506580149092E-002
1,736288219690323E-001	1,790703046653008E-002
1,766182035207748E-001	1,839556916335520E-002
1,796393990516663E-001	1,882821667540058E-002
1,826436668634415E-001	1,858766170011625E-002
1,856224089860916E-001	1,861843742800473E-002
1,886001527309418E-001	1,875321885563608E-002
1,916086226701736E-001	1,895839765711574E-002
2,095905393362045E-001	1,880682658662006E-002
2,125979661941528E-001	1,958182467812242E-002
2,156298011541367E-001	2,013115764121824E-002
2,186393290758133E-001	2,011082018887272E-002
2,216510027647018E-001	2,010664816205254E-002
2,246202230453491E-001	1,995257538712591E-002
2,276382446289063E-001	2,026291285639859E-002
2,306180894374847E-001	2,060883361062016E-002
2,336583882570267E-001	2,079466855745216E-002
2,366393208503723E-001	2,118579397170434E-002
2,396329194307327E-001	2,157532483397512E-002
2,426414042711258E-001	2,151052703104356E-002
2,456700503826141E-001	2,141690217386993E-002
2,486244440078735E-001	2,138460909312317E-002
2,515936791896820E-001	2,175033800732418E-002
2,546275854110718E-001	2,204263712782351E-002
2,576042413711548E-001	2,193670335772263E-002
2,606710791587830E-001	2,229097086536866E-002
2,636636495590210E-001	2,203464249355941E-002
2,666286528110504E-001	2,242109958953936E-002
2,696233093738556E-001	2,273345360339996E-002
2,726116478443146E-001	2,312606285502428E-002
2,756434679031372E-001	2,312387056736048E-002
2,785882651805878E-001	2,315531347833005E-002
2,815861701965332E-001	2,353200622302321E-002
2,846201062202454E-001	2,379137573128304E-002
2,876445055007935E-001	2,406698202078889E-002
2,906551063060761E-001	2,445722143683166E-002
2,936497628688812E-001	2,456106762919164E-002
2,966518998146057E-001	2,455074102100402E-002
2,996900975704193E-001	2,480759888931058E-002
3,025850951671600E-001	2,506986928468313E-002
3,056168854236603E-001	2,539223406064489E-002
3,085967004299164E-001	2,538508960828451E-002
3,116338253021240E-001	2,586332979788297E-002
3,146433532238007E-001	2,588985733746091E-002
3,176104724407196E-001	2,630124974611031E-002
3,205882012844086E-001	2,655181096674323E-002
3,236210942268372E-001	2,680446176479265E-002
3,266168236732483E-001	2,718677823415622E-002
3,296178877353668E-001	2,769303255182537E-002
3,325839340686798E-001	2,781216039026425E-002
3,356253206729889E-001	2,803325853043737E-002
3,386104702949524E-001	2,848334609249533E-002
3,415892422199249E-001	2,899691979918217E-002
3,446210622787476E-001	2,925073792195898E-002
3,476051390171051E-001	2,952506713983089E-002
3,506242036819458E-001	2,984842405122545E-002
3,536422252655029E-001	2,992036655915498E-002
3,565891981124878E-001	3,055023843302884E-002
3,596030175685883E-001	3,058369985471168E-002
3,626115024089813E-001	3,108839649293160E-002
3,633965849876404E-001	3,065522201359272E-002
3,604240417480469E-001	6,629423864997819E-003
3,576362133026123E-001	-9,545897854034528E-004
3,546468317508698E-001	-5,784677884851881E-003
3,516489863395691E-001	-7,966915099839548E-003
3,486075997352600E-001	-9,980790259962492E-003
3,456235527992249E-001	-1,096118166828497E-002
3,426765501499176E-001	-1,157174290468296E-002
3,396076261997223E-001	-1,191748691922435E-002
3,365874886512756E-001	-1,247219860346779E-002
3,336203694343567E-001	-1,311880209808197E-002
3,306055068969727E-001	-1,358045320921519E-002
3,275747895240784E-001	-1,413484683467284E-002
3,245663046836853E-001	-1,460024782944758E-002
3,215970396995544E-001	-1,476440065865361E-002
3,111496865749359E-001	-1,480159475689125E-002
3,006300032138824E-001	-1,582092983840585E-002
2,976289093494415E-001	-1,630770031119429E-002
2,946045398712158E-001	-1,637314585504002E-002
2,916299998760223E-001	-1,653375255935113E-002
2,886257767677307E-001	-1,644036026057921E-002
2,856512069702148E-001	-1,676687747810016E-002
2,826395630836487E-001	-1,666358098373168E-002
2,796257734298706E-001	-1,694517163094944E-002
2,766205072402954E-001	-1,711285299481660E-002
2,736130356788635E-001	-1,724480478899039E-002
2,706332206726074E-001	-1,743017307328246E-002
2,676289975643158E-001	-1,775421467735011E-002
2,646205127239227E-001	-1,765410120303079E-002
2,616385519504547E-001	-1,766719063279087E-002
2,586523294448853E-001	-1,772343830857104E-002
2,556470334529877E-001	-1,786918503684221E-002
2,375855445861816E-001	-1,816362154123556E-002
2,346290498971939E-001	-1,823542418949525E-002
2,316523939371109E-001	-1,854321544568741E-002
2,286513298749924E-001	-1,872229448437995E-002
2,256142050027847E-001	-1,924014988415168E-002
2,226354479789734E-001	-1,967187961741321E-002
2,196375727653503E-001	-1,934258364053670E-002
2,166078537702560E-001	-1,946567236963248E-002
2,136216759681702E-001	-1,936879247013062E-002
2,106535136699677E-001	-1,921270324479946E-002
2,076853066682816E-001	-1,969310144583381E-002
2,046110779047012E-001	-1,986542415316866E-002
2,016195803880692E-001	-1,994203701542574E-002
1,986460983753204E-001	-1,965826257663944E-002
1,955845803022385E-001	-1,976720198945262E-002
1,926121562719345E-001	-2,000022116206107E-002
1,896132230758667E-001	-2,019023126154529E-002
1,866302043199539E-001	-2,037956778359434E-002
1,836227625608444E-001	-2,058029392113286E-002
1,806079447269440E-001	-2,061163268525790E-002
1,776493191719055E-001	-2,046937174681157E-002
1,746196150779724E-001	-2,068629906837791E-002
1,716419011354446E-001	-2,088490195173009E-002
1,686016023159027E-001	-2,104491691150334E-002
1,656259894371033E-001	-2,100342824996920E-002
1,626175343990326E-001	-2,116896102840349E-002
1,596440374851227E-001	-2,099299442407853E-002
1,566270887851715E-001	-2,122374845890188E-002
1,536345034837723E-001	-2,126223222633898E-002
1,506355851888657E-001	-2,131065369879552E-002
1,476228684186935E-001	-2,110759331076728E-002
1,446727216243744E-001	-2,147417108588146E-002
1,416504532098770E-001	-2,171737585659789E-002
1,386472731828690E-001	-2,200016073483191E-002
1,356515139341354E-001	-2,208618211605223E-002
1,326483488082886E-001	-2,248140878590577E-002
1,296324431896210E-001	-2,239376106566243E-002
1,265762299299240E-001	-2,210071769069244E-002
1,236366853117943E-001	-2,232146496559539E-002
1,206557974219322E-001	-2,256859684954782E-002
1,176473200321198E-001	-2,277911969698224E-002
1,146345883607864E-001	-2,292855930338394E-002
1,116123199462891E-001	-2,294493533271530E-002
1,086685433983803E-001	-2,266052305640193E-002
1,056844666600227E-001	-2,316419544675025E-002
1,026462763547897E-001	-2,307332922201666E-002
9,965370595455170E-002	-2,320115767361131E-002
9,663250297307968E-002	-2,330373072375849E-002
9,369509667158127E-002	-2,358110415823625E-002
9,070464968681335E-002	-2,377422673776486E-002
8,763570338487625E-002	-2,404183609218707E-002
8,466223627328873E-002	-2,403419752429015E-002
8,165164291858673E-002	-2,442486137078964E-002
7,863147556781769E-002	-2,428507856610745E-002
7,561875879764557E-002	-2,406136083461913E-002
7,264528423547745E-002	-2,426049591708263E-002
6,966438889503479E-002	-2,435136234594718E-002
6,662196666002274E-002	-2,472557994567770E-002
6,372381746768951E-002	-2,491810663507632E-002
6,297913193702698E-002	-2,391740493476391E-002
6,596319377422333E-002	-5,432319289133770E-003
6,885498017072678E-002	2,657842279859324E-003
7,184118032455444E-002	6,965900716548075E-003
7,489422708749771E-002	9,415182721062981E-003
7,793240249156952E-002	1,073679153725808E-002
8,095679432153702E-002	1,102024890496976E-002
8,398967236280441E-002	1,104819122095552E-002
8,695253729820251E-002	1,133730697135132E-002
1,049535647034645E-001	1,365734127446364E-002
1,079238504171371E-001	1,403939904452678E-002
1,109323352575302E-001	1,430613272734467E-002
1,139164194464684E-001	1,440341563688385E-002
1,169556677341461E-001	1,443490012873858E-002
1,199461221694946E-001	1,450706725740428E-002
1,229079216718674E-001	1,492697704775819E-002
1,259174644947052E-001	1,520007805528517E-002
1,289492845535278E-001	1,558036749176814E-002
1,319588124752045E-001	1,560194628756206E-002
1,349269896745682E-001	1,547176360448552E-002
1,379471272230148E-001	1,586089654544297E-002
1,409259140491486E-001	1,592174204516700E-002
1,439014971256256E-001	1,580005145963997E-002
1,469343900680542E-001	1,615486872308089E-002
1,499831676483154E-001	1,651994654073660E-002
1,529704332351685E-001	1,668161387088829E-002
1,709322184324265E-001	1,836448705459288E-002
1,738770604133606E-001	1,759702403998947E-002
1,769109815359116E-001	1,756059291033640E-002
1,799237132072449E-001	1,783202325289801E-002
1,829088479280472E-001	1,787867679963207E-002
1,859597563743591E-001	1,817875910779148E-002
1,889714300632477E-001	1,817985489409085E-002
1,919459551572800E-001	1,849571034755276E-002
1,949077695608139E-001	1,881991391039473E-002
1,978929042816162E-001	1,891859709374133E-002
2,008897215127945E-001	1,934077690829222E-002
2,039077281951904E-001	1,923066784567906E-002
2,069321572780609E-001	1,910453766969217E-002
2,099246829748154E-001	1,941289429507581E-002
2,129066884517670E-001	1,921588403112967E-002
2,158960700035095E-001	1,953513450078193E-002
2,189045399427414E-001	1,971237637189921E-002
2,219246774911880E-001	1,999576021828247E-002
2,248971164226532E-001	1,957757935370961E-002
2,279193699359894E-001	1,984646261108636E-002
2,309193611145020E-001	2,018078330163708E-002
2,339480072259903E-001	2,051733170931891E-002
2,369755655527115E-001	2,054484871526568E-002
2,399522364139557E-001	2,076524056893608E-002
2,429310232400894E-001	2,078317316085720E-002
2,459437400102615E-001	2,110564415326938E-002
2,489479631185532E-001	2,126519929232829E-002
2,519288659095764E-001	2,156276999691427E-002
2,549574971199036E-001	2,152142249461675E-002
2,578843235969543E-001	2,169381706294693E-002
2,609224915504456E-001	2,187434517246500E-002
2,639320194721222E-001	2,179285248106072E-002
2,669225037097931E-001	2,231056685721139E-002
2,699298858642578E-001	2,240323777813402E-002
2,728906273841858E-001	2,251553635303727E-002
2,759245634078979E-001	2,242449629637933E-002
2,788831889629364E-001	2,267696667048669E-002
2,818959355354309E-001	2,306320859740182E-002
2,849606275558472E-001	2,339795331661454E-002
2,879510819911957E-001	2,366475196362850E-002
2,909351587295532E-001	2,397420543436757E-002
2,939531803131104E-001	2,446330408727393E-002
2,969065308570862E-001	2,440222039876971E-002
2,999372780323029E-001	2,461062169337915E-002
3,029118180274963E-001	2,490348786159305E-002
3,058958649635315E-001	2,520289738943876E-002
3,088735938072205E-001	2,524003732550123E-002
3,118990361690521E-001	2,567682253033532E-002
3,148884475231171E-001	2,551751542422509E-002
3,178661465644836E-001	2,603738764123101E-002
3,209096491336823E-001	2,623765391237814E-002
3,239032626152039E-001	2,664554247854140E-002
3,269085586071014E-001	2,677934781159930E-002
3,299106657505035E-001	2,714776474183764E-002
3,328905403614044E-001	2,761992116413448E-002
3,359287083148956E-001	2,787568520014039E-002
3,389297425746918E-001	2,826383614349953E-002
3,419085144996643E-001	2,882760349247190E-002
3,449169993400574E-001	2,893650762780456E-002
3,479413986206055E-001	2,913284894950469E-002
3,508989810943604E-001	2,931040664528467E-002
3,538607656955719E-001	2,956811343230785E-002
3,568978905677795E-001	3,015734601366499E-002
3,599308133125305E-001	3,034141396468237E-002
3,627711832523346E-001	3,071029229067784E-002
3,633965849876404E-001	3,012297116219997E-002
3,604823946952820E-001	6,142588248129272E-003
3,501465320587158E-001	-8,540828383669513E-003
3,396012485027313E-001	-1,199397951172110E-002
3,366214036941528E-001	-1,294700203005864E-002
3,336076438426971E-001	-1,331208002435834E-002
3,306150734424591E-001	-1,365310286039154E-002
3,276107907295227E-001	-1,382396690355056E-002
3,246161043643951E-001	-1,426191950587158E-002
3,216161429882050E-001	-1,478512666269831E-002
3,186034262180328E-001	-1,510386287959087E-002
3,155768811702728E-001	-1,549016556762381E-002
3,126034140586853E-001	-1,562282544243015E-002
3,096257150173187E-001	-1,571338654806212E-002
3,066607415676117E-001	-1,586656483939602E-002
3,036193549633026E-001	-1,596561600935176E-002
3,006671369075775E-001	-1,609296861149945E-002
2,976543903350830E-001	-1,655108505838138E-002
2,946342229843140E-001	-1,652950560209221E-002
2,766098678112030E-001	-1,649131813367903E-002
2,736321687698364E-001	-1,752755880584622E-002
2,706427574157715E-001	-1,780245691123933E-002
2,676533758640289E-001	-1,792108829835746E-002
2,646342813968658E-001	-1,794616647021030E-002
2,616311311721802E-001	-1,807169458718114E-002
2,586077749729156E-001	-1,840856017265147E-002
2,556183934211731E-001	-1,813529060503546E-002
2,526364624500275E-001	-1,840258252903165E-002
2,496130913496017E-001	-1,816033248885818E-002
2,466555535793304E-001	-1,845998979418556E-002
2,436301112174988E-001	-1,865569268819756E-002
2,406035661697388E-001	-1,871260246439811E-002
2,376354187726974E-001	-1,883498483989077E-002
2,346417754888535E-001	-1,901951025299953E-002
2,316088974475861E-001	-1,907826078220543E-002
2,286152839660645E-001	-1,901314322660452E-002
2,256004214286804E-001	-1,940299394643964E-002
2,226428836584091E-001	-1,955239863430812E-002
2,196173965930939E-001	-1,933968369687344E-002
2,166216671466827E-001	-1,931432181704118E-002
2,136163413524628E-001	-1,947879369415906E-002
2,106205970048904E-001	-1,957708723784884E-002
2,076662480831146E-001	-1,991038111777410E-002
2,046153098344803E-001	-2,009317491602913E-002
2,016078978776932E-001	-1,999371328687020E-002
1,986503303050995E-001	-1,980423495115252E-002
1,956089735031128E-001	-2,001652645938318E-002
1,926195770502090E-001	-2,009038019039305E-002
1,896418631076813E-001	-2,022973982780563E-002
1,866482347249985E-001	-2,035908810365883E-002
1,836503595113754E-001	-2,069542432824772E-002
1,806047558784485E-001	-2,079117148686138E-002
1,776524633169174E-001	-2,092115672025507E-002
1,746174842119217E-001	-2,072845898510423E-002
1,716482639312744E-001	-2,108177221897578E-002
1,686037182807922E-001	-2,123400655384311E-002
1,656260043382645E-001	-2,123036297659081E-002
1,626005470752716E-001	-2,139440899878134E-002
1,595973819494247E-001	-2,093289899655953E-002
1,566207110881805E-001	-2,140236787454344E-002
1,536514759063721E-001	-2,136381555748007E-002
1,506514996290207E-001	-2,158392342769533E-002
1,476599872112274E-001	-2,154728051674387E-002
1,446674168109894E-001	-2,172130291203050E-002
1,416440755128860E-001	-2,192563636021477E-002
1,386345326900482E-001	-2,225051116612220E-002
1,356515437364578E-001	-2,236525252091170E-002
1,326621323823929E-001	-2,263643583460682E-002
1,296557784080505E-001	-2,244554234817361E-002
1,266345679759979E-001	-2,226773574875551E-002
1,236515492200851E-001	-2,252944122099304E-002
1,206494346261024E-001	-2,271014729234999E-002
1,176324635744095E-001	-2,266002794890987E-002
1,146123260259628E-001	-2,282899080051318E-002
1,116388440132141E-001	-2,303130966093805E-002
1,086452081799507E-001	-2,296124002128233E-002
1,056335419416428E-001	-2,324996769028875E-002
1,026569008827209E-001	-2,314435268797549E-002
9,965264797210693E-002	-2,328275583285078E-002
9,660810232162476E-002	-2,344988151970828E-002
9,364417940378189E-002	-2,355139235684561E-002
9,064737707376480E-002	-2,374316984181254E-002
8,764418959617615E-002	-2,398828503484973E-002
8,460919559001923E-002	-2,427825100676276E-002
8,163889497518539E-002	-2,456690804441075E-002
7,865269482135773E-002	-2,451392355093657E-002
7,570044696331024E-002	-2,451993551504628E-002
7,261664420366287E-002	-2,438991467513718E-002
6,969833374023438E-002	-2,429759901416317E-002
6,666544824838638E-002	-2,459368246652754E-002
6,373472511768341E-002	-2,488095204119289E-002
6,303641200065613E-002	-2,397311292588711E-002
6,595364212989807E-002	-5,386797868570464E-003
6,885285675525665E-002	2,687341216023417E-003
7,189103960990906E-002	6,916417976147685E-003
7,490694522857666E-002	9,383349235880134E-003
7,792071998119354E-002	1,063015019321439E-002
8,095360547304153E-002	1,084523654875133E-002
8,397800475358963E-002	1,092198996330904E-002
8,693768829107285E-002	1,125468257851026E-002
8,992812037467957E-002	1,171934075682657E-002
9,293554723262787E-002	1,216390962852326E-002
9,598434716463089E-002	1,238854583567039E-002
1,064046248793602E-001	1,355405827038020E-002
1,169174686074257E-001	1,437546933690712E-002
1,199323236942291E-001	1,444091403472056E-002
1,228941231966019E-001	1,469314327085969E-002
1,258888244628906E-001	1,499595958133188E-002
1,289514005184174E-001	1,531398758520987E-002
1,319397240877151E-001	1,541834746583648E-002
1,349524557590485E-001	1,545867476812016E-002
1,379248499870300E-001	1,586832625798715E-002
1,409089267253876E-001	1,589202852705462E-002
1,439237892627716E-001	1,590759333480996E-002
1,469312161207199E-001	1,613647286063094E-002
1,498781442642212E-001	1,650508879417129E-002
1,529587656259537E-001	1,669717987008174E-002
1,559322327375412E-001	1,689280739689517E-002
1,589089035987854E-001	1,713796197812678E-002
1,619375348091125E-001	1,710081645412882E-002
1,799650788307190E-001	1,691130126730261E-002
1,829130947589874E-001	1,739459957186928E-002
1,859523355960846E-001	1,791673573198849E-002
1,889237016439438E-001	1,808520468431296E-002
1,919332295656204E-001	1,825614793233402E-002
1,949480623006821E-001	1,852814604838693E-002
1,979173272848129E-001	1,845075515423866E-002
2,009342759847641E-001	1,899064716195024E-002
2,039575874805450E-001	1,893012747597020E-002
2,069544196128845E-001	1,891159373210227E-002
2,099650353193283E-001	1,913223316842050E-002
2,129130214452744E-001	1,926632163425290E-002
2,159172743558884E-001	1,948126615793122E-002
2,189660668373108E-001	1,953343794149187E-002
2,219331562519073E-001	1,969716505886435E-002
2,249267995357513E-001	1,956480987428216E-002
2,279162108898163E-001	1,972977725138969E-002
2,309384644031525E-001	2,010530288478352E-002
2,339480072259903E-001	2,035540619302378E-002
2,369342446327209E-001	2,047647852022139E-002
2,399342358112335E-001	2,089996695576696E-002
2,429214566946030E-001	2,081270715886303E-002
2,459575533866882E-001	2,121974858972764E-002
2,489607036113739E-001	2,127740309070861E-002
2,519214451313019E-001	2,134244762419252E-002
2,549617588520050E-001	2,147618201545104E-002
2,579203844070435E-001	2,158013654237345E-002
2,609426379203796E-001	2,182366038848865E-002
2,639086842536926E-001	2,189185312696890E-002
2,669107913970947E-001	2,239619742694133E-002
2,699447572231293E-001	2,247507350370553E-002
2,728864252567291E-001	2,268432411882609E-002
2,759203314781189E-001	2,255264014092967E-002
2,789309620857239E-001	2,264524048829721E-002
2,819256186485291E-001	2,304800085767053E-002
2,849478721618652E-001	2,340340018700873E-002
2,879447042942047E-001	2,367578646832658E-002
2,909351885318756E-001	2,409060771767846E-002
2,939563691616058E-001	2,425055229873074E-002
2,969553172588348E-001	2,442797035392785E-002
2,999234795570374E-001	2,438860345217927E-002
3,028884530067444E-001	2,470481358897003E-002
3,059489130973816E-001	2,504832870060147E-002
3,088937401771545E-001	2,501833613577116E-002
3,118565976619720E-001	2,559713383501128E-002
3,148789107799530E-001	2,550216587082507E-002
3,179191648960114E-001	2,595019998221287E-002
3,209181129932404E-001	2,629176984717357E-002
3,239032328128815E-001	2,651661880372558E-002
3,268947601318359E-001	2,665799300747402E-002
3,298799097537994E-001	2,707971334530157E-002
3,328968882560730E-001	2,733618226759268E-002
3,359096050262451E-001	2,766441694135816E-002
3,388936817646027E-001	2,827274994746811E-002
3,418820202350616E-001	2,894977237600777E-002
3,449254930019379E-001	2,884047648573564E-002
3,478703200817108E-001	2,906656480142072E-002
3,509308099746704E-001	2,923998381528600E-002
3,539042770862579E-001	2,970803961216012E-002
3,568925857543945E-001	3,009742905325963E-002
3,598798811435699E-001	3,020028682618026E-002
3,627950251102448E-001	3,064848173986923E-002
3,632438182830811E-001	3,019364178180695E-002
3,604431450366974E-001	5,974296558431687E-003
3,576033115386963E-001	-1,395727267423453E-003
3,546266853809357E-001	-6,194866504301885E-003
3,516012132167816E-001	-8,402817650474195E-003
3,486468195915222E-001	-1,006008996217944E-002
3,306246101856232E-001	-1,364744195921555E-002
3,276044726371765E-001	-1,401782733713239E-002
3,246161341667175E-001	-1,441438887054070E-002
3,216150999069214E-001	-1,475222789971054E-002
3,185980916023254E-001	-1,518805657380859E-002
3,156023621559143E-001	-1,551139178789325E-002
3,125758171081543E-001	-1,569499237626179E-002
3,096055686473846E-001	-1,590052480484394E-002
3,066459000110626E-001	-1,572895239809844E-002
3,036406040191650E-001	-1,595712640604084E-002
3,006511926651001E-001	-1,619626620777123E-002
2,976289391517639E-001	-1,674246942174146E-002
2,946352958679199E-001	-1,657691030009621E-002
2,915992438793182E-001	-1,693632834273256E-002
2,886575758457184E-001	-1,668940488020272E-002
2,856395542621613E-001	-1,706438784013797E-002
2,826544046401978E-001	-1,702611251979153E-002
2,645886838436127E-001	-1,885560405551384E-002
2,616523802280426E-001	-1,826428519598261E-002
2,586162984371185E-001	-1,838376501938099E-002
2,556152045726776E-001	-1,822856167665227E-002
2,526353895664215E-001	-1,836770884619909E-002
2,496565878391266E-001	-1,809033467664756E-002
2,466598004102707E-001	-1,839547318215617E-002
2,436311542987823E-001	-1,851003711534660E-002
2,406438887119293E-001	-1,867419193816505E-002
2,375738769769669E-001	-1,878249424569520E-002
2,346142083406448E-001	-1,907833137859902E-002
2,316428422927856E-001	-1,911356018576449E-002
2,286364883184433E-001	-1,919561977572611E-002
2,256407290697098E-001	-1,919537110047193E-002
2,226333320140839E-001	-1,967668901286542E-002
2,196450084447861E-001	-1,961365957241573E-002
2,166333347558975E-001	-1,974078072412847E-002
2,136365026235580E-001	-1,988424351616733E-002
2,106152921915054E-001	-1,966629153280847E-002
2,076418250799179E-001	-1,977427627005252E-002
2,046216726303101E-001	-2,001291987309939E-002
2,016301751136780E-001	-2,007655040627770E-002
1,986291259527206E-001	-1,989803625434028E-002
1,956514120101929E-001	-1,998854921880094E-002
1,926407963037491E-001	-2,010368063646539E-002
1,896471977233887E-001	-2,040673124308034E-002
1,865856498479843E-001	-2,047991370960115E-002
1,836142688989639E-001	-2,086979876346759E-002
1,806090176105499E-001	-2,083078510986525E-002
1,776132583618164E-001	-2,065223642906245E-002
1,746206581592560E-001	-2,073779707966924E-002
1,716259866952896E-001	-2,123146071971865E-002
1,686334162950516E-001	-2,136317868199616E-002
1,656387299299240E-001	-2,132069894408538E-002
1,626291871070862E-001	-2,153210654796567E-002
1,596154123544693E-001	-2,132013229816540E-002
1,566429734230042E-001	-2,154692692460630E-002
1,536228507757187E-001	-2,131999174768373E-002
1,506684869527817E-001	-2,157936130162047E-002
1,476546823978424E-001	-2,142390886041945E-002
1,446918398141861E-001	-2,157327791468960E-002
1,416292190551758E-001	-2,178493390480674E-002
1,386218070983887E-001	-2,215087288398843E-002
1,356430500745773E-001	-2,235216557892272E-002
1,326515376567841E-001	-2,255855068506202E-002
1,296854764223099E-001	-2,267944502333791E-002
1,266282051801682E-001	-2,230873136027692E-002
1,236069947481155E-001	-2,243602846202618E-002
1,206749007105827E-001	-2,267095705287331E-002
1,175783574581146E-001	-2,302773645310985E-002
1,146483868360519E-001	-2,287087077881245E-002
1,116155013442039E-001	-2,324713853926763E-002
1,086717322468758E-001	-2,279072034232540E-002
1,056738495826721E-001	-2,331954191484131E-002
1,026515960693359E-001	-2,319924655401129E-002
9,965372085571289E-002	-2,357958373451968E-002
9,660916775465012E-002	-2,360271638422595E-002
9,368024766445160E-002	-2,367221842238598E-002
9,067918360233307E-002	-2,388259945615166E-002
8,767601847648621E-002	-2,410879364429599E-002
8,464101701974869E-002	-2,418766902095126E-002
8,166435360908508E-002	-2,442362275744220E-002
7,862511277198792E-002	-2,437396384347162E-002
7,564528286457062E-002	-2,451166023011969E-002
7,264103740453720E-002	-2,459891740646625E-002
6,963362544775009E-002	-2,489521470690514E-002
6,665590405464172E-002	-2,492163603003272E-002
6,373881548643112E-002	-2,502556597547878E-002
6,303641200065613E-002	-2,367960847914219E-002
6,593666970729828E-002	-5,394720984668297E-003
6,887195259332657E-002	2,737602341603126E-003
7,188361883163452E-002	6,873867319275945E-003
7,489315420389175E-002	9,327783495892777E-003
7,791436463594437E-002	1,064454655473430E-002
8,095573633909225E-002	1,072313872727038E-002
8,395360410213470E-002	1,081078629977128E-002
8,694193512201309E-002	1,126716844131199E-002
8,997480571269989E-002	1,148625160264299E-002
9,294933825731277E-002	1,211934302045850E-002
9,595358371734619E-002	1,252921290082060E-002
9,895994514226913E-002	1,304049004061705E-002
1,019069030880928E-001	1,305654792728697E-002
1,049387231469154E-001	1,350118780929834E-002
1,079015880823135E-001	1,364924670108141E-002
1,259238123893738E-001	1,501294069021242E-002
1,289641261100769E-001	1,547777830940809E-002
1,319322884082794E-001	1,551386088997081E-002
1,349333524703979E-001	1,531009672645367E-002
1,379810720682144E-001	1,583330304472644E-002
1,409280300140381E-001	1,582410545819990E-002
1,439322680234909E-001	1,593978500629117E-002
1,469375640153885E-001	1,606784531011524E-002
1,499269455671310E-001	1,641594229901483E-002
1,529428660869598E-001	1,660272641129273E-002
1,559354364871979E-001	1,689811382028794E-002
1,589311659336090E-001	1,701591589214024E-002
1,619152724742889E-001	1,706721079446853E-002
1,649290323257446E-001	1,696886522303326E-002
1,679258495569229E-001	1,716307881805634E-002
1,709131002426147E-001	1,735870612436774E-002
1,738791763782501E-001	1,750268506394703E-002
1,918929219245911E-001	1,915755816217929E-002
1,949682384729385E-001	1,911833241966737E-002
1,979459524154663E-001	1,897713506372786E-002
2,009279280900955E-001	1,912063206064990E-002
2,039533555507660E-001	1,901031176122259E-002
2,069438099861145E-001	1,909003669890003E-002
2,099109143018723E-001	1,892988104231735E-002
2,129427492618561E-001	1,894409853209966E-002
2,159204632043839E-001	1,953322534730739E-002
2,189204394817352E-001	1,977406078771723E-002
2,219193726778030E-001	1,983199811244653E-002
2,249268293380737E-001	1,970006585179362E-002
2,279406040906906E-001	1,961815033994041E-002
2,309299707412720E-001	2,000513510615237E-002
2,339246571063995E-001	2,035752964487381E-002
2,369426935911179E-001	2,056532870564196E-002
2,399702668190002E-001	2,076647801974714E-002
2,428715974092484E-001	2,091616557704078E-002
2,459087222814560E-001	2,106977942902527E-002
2,489394843578339E-001	2,120853683259660E-002
2,519224882125854E-001	2,159531111990665E-002
2,549288570880890E-001	2,152174015484182E-002
2,579182386398315E-001	2,156729622462684E-002
2,609383761882782E-001	2,179412643615952E-002
2,638896107673645E-001	2,179455076313591E-002
2,669320404529572E-001	2,236882143107422E-002
2,699479460716248E-001	2,239467646157006E-002
2,729171812534332E-001	2,265142880423807E-002
2,759351730346680E-001	2,252038179600881E-002
2,789638042449951E-001	2,277441221465576E-002
2,819341123104095E-001	2,316040831808797E-002
2,849161028862000E-001	2,336173589517576E-002
2,879012227058411E-001	2,354930214642087E-002
2,909213602542877E-001	2,395931448417188E-002
2,939181923866272E-001	2,401410318068686E-002
2,969043850898743E-001	2,430930259813768E-002
2,999128401279449E-001	2,437562257465392E-002
3,029107451438904E-001	2,478602326179198E-002
3,059245347976685E-001	2,499498994843127E-002
3,088831007480621E-001	2,511811532167485E-002
3,119192123413086E-001	2,555843874870328E-002
3,148958683013916E-001	2,533840129358905E-002
3,178926706314087E-001	2,603346042734400E-002
3,208968937397003E-001	2,626870848325774E-002
3,238841891288757E-001	2,645086445328265E-002
3,269244730472565E-001	2,646129839195066E-002
3,298947513103485E-001	2,693526047813888E-002
3,329021632671356E-001	2,728804159495563E-002
3,359096050262451E-001	2,762512005938345E-002
3,389297723770142E-001	2,822471806616200E-002
3,418597579002380E-001	2,878094977374226E-002
3,449445962905884E-001	2,893229834808153E-002
3,479021787643433E-001	2,904870294433848E-002
3,509085178375244E-001	2,937920224778487E-002
3,538755774497986E-001	2,969523482453143E-002
3,569085299968719E-001	3,011928961051225E-002
3,599254488945007E-001	3,027739238880006E-002
3,627616167068481E-001	3,059505548905372E-002
3,633774816989899E-001	3,015098348259926E-002
3,604834377765656E-001	6,001213441158545E-003
3,576267063617706E-001	-1,471985437749228E-003
3,546266555786133E-001	-6,130952290631181E-003
3,516457974910736E-001	-8,262114628248813E-003
3,486373126506805E-001	-1,020507303554849E-002
3,456404805183411E-001	-1,112392031447806E-002
3,425917029380798E-001	-1,170448757693522E-002
3,396203219890594E-001	-1,223935662872261E-002
3,291425108909607E-001	-1,355066862628709E-002
3,185917139053345E-001	-1,504973725726205E-002
3,155917227268219E-001	-1,533168235336133E-002
3,125790357589722E-001	-1,567093633093462E-002
3,096129596233368E-001	-1,588283807601931E-002
3,066501319408417E-001	-1,594332941446436E-002
3,036225438117981E-001	-1,603601312449929E-002
3,006140887737274E-001	-1,621961408576071E-002
2,976278662681580E-001	-1,658079985928554E-002
2,946575582027435E-001	-1,666747083052339E-002
2,916416823863983E-001	-1,708066099005617E-002
2,886565327644348E-001	-1,682241795747860E-002
2,856607735157013E-001	-1,713867773125666E-002
2,826299965381622E-001	-1,697842543479855E-002
2,796013951301575E-001	-1,706438772594587E-002
2,766140997409821E-001	-1,742628157080617E-002
2,736363708972931E-001	-1,752993306965636E-002
2,556438446044922E-001	-1,689439630313747E-002
2,526566088199615E-001	-1,774727825815914E-002
2,496449351310730E-001	-1,799872604007968E-002
2,466672211885452E-001	-1,845482426385081E-002
2,436322271823883E-001	-1,846345600481270E-002
2,406173795461655E-001	-1,875663912101621E-002
2,376523911952972E-001	-1,873817580154641E-002
2,346672564744949E-001	-1,906283905878409E-002
2,316523939371109E-001	-1,908593628326749E-002
2,286566346883774E-001	-1,894923014373884E-002
2,256428599357605E-001	-1,935015168197018E-002
2,226683199405670E-001	-1,973204371016540E-002
2,196449935436249E-001	-1,964556366147002E-002
2,166163474321365E-001	-1,980812597119241E-002
2,136513739824295E-001	-1,999969133086976E-002
2,106450051069260E-001	-1,989616172108477E-002
2,076630592346191E-001	-2,011446781398268E-002
2,046481966972351E-001	-2,011910092470414E-002
2,016195654869080E-001	-2,010477621863371E-002
1,986100226640701E-001	-1,988321599047699E-002
1,956312656402588E-001	-2,003046322998769E-002
1,925972998142242E-001	-2,028707441341895E-002
1,895973086357117E-001	-2,042728079646217E-002
1,866514235734940E-001	-2,068095715124701E-002
1,836217194795609E-001	-2,094467841016012E-002
1,806196123361588E-001	-2,083686911767774E-002
1,776121705770493E-001	-2,078837676122522E-002
1,746037155389786E-001	-2,081009369713785E-002
1,716451048851013E-001	-2,106684673991469E-002
1,686673611402512E-001	-2,141977092429035E-002
1,656005382537842E-001	-2,123531514128746E-002
1,626217663288116E-001	-2,124263629229967E-002
1,596334278583527E-001	-2,104605005418612E-002
1,565984338521957E-001	-2,169074140046073E-002
1,536727100610733E-001	-2,134354911686392E-002
1,506589204072952E-001	-2,159135231098239E-002
1,475772559642792E-001	-2,153592714360766E-002
1,446854621171951E-001	-2,180919655923694E-002
1,416207551956177E-001	-2,204345394339824E-002
1,386525779962540E-001	-2,216399583064932E-002
1,356557458639145E-001	-2,223045581316301E-002
1,326398700475693E-001	-2,276072777749505E-002
1,296526044607162E-001	-2,278537984036821E-002
1,266345679759979E-001	-2,265026506777057E-002
1,236409395933151E-001	-2,266961362612263E-002
1,206600368022919E-001	-2,275956050774161E-002
1,176207959651947E-001	-2,302801957517253E-002
1,146473288536072E-001	-2,299721152788459E-002
1,116399019956589E-001	-2,315542369696127E-002
1,086526364088058E-001	-2,296647631859132E-002
1,056494638323784E-001	-2,326436407464721E-002
1,026229485869408E-001	-2,321679085434880E-002
9,963887184858322E-002	-2,329212951533707E-002
9,661553800106049E-002	-2,347775277505404E-002
9,364949166774750E-002	-2,374974882008651E-002
9,066326916217804E-002	-2,390286689802044E-002
8,762403577566147E-002	-2,410614008719364E-002
8,462934941053391E-002	-2,428981728452423E-002
8,163466304540634E-002	-2,450568189993244E-002
7,862724363803864E-002	-2,433993823797212E-002
7,561027258634567E-002	-2,450012723945993E-002
7,261876016855240E-002	-2,462629492098734E-002
6,964846700429916E-002	-2,474853391848024E-002
6,666651368141174E-002	-2,491286231411823E-002
6,370471417903900E-002	-2,486535420393921E-002
6,305550783872604E-002	-2,398839220404625E-002
6,600562483072281E-002	-5,421460783256601E-003
6,889529526233673E-002	2,742731113522093E-003
8,694723248481750E-002	1,157618449623340E-002
8,996102213859558E-002	1,179409993427624E-002
9,294085204601288E-002	1,213759830029124E-002
9,595358371734619E-002	1,241459024863112E-002
9,891538321971893E-002	1,262542944601186E-002
1,019323542714119E-001	1,299121479193369E-002
1,049238592386246E-001	1,342492184933992E-002
1,079312786459923E-001	1,385190777687564E-002
1,109355241060257E-001	1,410661337690219E-002
1,139758229255676E-001	1,413632910912890E-002
1,169386804103851E-001	1,440093937647665E-002
1,199227795004845E-001	1,439527887244672E-002
1,229111030697823E-001	1,458454023425777E-002
1,259068548679352E-001	1,489620065937439E-002
1,289482116699219E-001	1,530266859501561E-002
1,319025903940201E-001	1,551067755483221E-002
1,423932015895844E-001	1,695092374871626E-002
1,529693603515625E-001	1,742328513642460E-002
1,559375524520874E-001	1,699877194490304E-002
1,589216291904449E-001	1,676324217927076E-002
1,619057059288025E-001	1,676568194610201E-002
1,649088859558105E-001	1,691932930286080E-002
1,679173558950424E-001	1,717604773613046E-002
1,707498133182526E-001	1,676766574382782E-002
1,706352382898331E-001	1,645951904356480E-002