File: fig_5_ni90fe10_ceo2_tio2_zro2/Activity_1/TiO2_Activity_1.mpt
EC-Lab ASCII FILE
Nb header lines : 61

Linear Sweep Voltammetry

Run on channel : 1 (SN 10336)
User :
CE vs. WE compliance from -10 V to 10 V
Electrode connection : standard
Potential control : Ewe
Ewe ctrl range : min = -2,50 V, max = 2,50 V
Safety Limits :
	Do not start on E overload
Acquisition started on : 10/07/2024 14:36:26.929
Technique started on : 10/07/2024 14:36:26.929
Loaded Setting File :  C:\EC-lab data\Neethu\2024_10_01_Ni90Fe10_TiO2\Activity_1.mps
Saved on :
	File : Activity_1_C01.mpr
	Directory : C:\EC-lab data\Neethu\2024_10_07_Ni90Fe10_TiO2\
	Host : 10.54.33.65
Device : VMP3 (SN 0498)
Address : USB
EC-Lab for windows v11.52 (software)
Internet server v11.52 (firmware)
Command interpretor v11.50 (firmware)
Electrode material :
Initial state :
Electrolyte :
Comments :
Electrode surface area : 0,001 cm²
Characteristic mass : 0,001 g
Volume (V) : 0,001 cm³
Thickness (t) : 0,000 cm
Diameter (d) : 0,000 cm
Cell constant (k=t/A) : 0,000 cm-1
Cycle Definition : Charge/Discharge alternance
tR (h:m:s)          0:00:5,0000
dER/dt (mV/h)       0,0
dER (mV)            0
dtR (s)             0,0000
dE/dt               5,000
dE/dt unit          mV/s
Ei (V)              0,064
vs.                 Ref
EL (V)              0,900
vs.                 Ref
record              <I>
dI                  0,000
unit dI             µA
tI (s)              0,0000
step percent        50
N                   10
E range min (V)     -2,500
E range max (V)     2,500
I Range             Auto
I Range min         Unset
I Range max         Unset
I Range init        Unset
Bandwidth           5

mode	ox/red	error	control changes	time/s	control/V	Ewe/V	<I>/mA	(Q-Qo)/C	I Range	P/W
3	1	0	1	10/07/2024 14:36:26.9290	0,0000000E+000	4,8964316E-001	0,000000000000000E+000	0,0000000E+000	14	0,0000000E+000
2	0	0	1	10/07/2024 14:36:32.1588	6,5029763E-002	6,4259298E-002	-4,990058758810711E-001	-1,3602118E-004	11	-3,2065767E-005
2	0	0	1	10/07/2024 14:36:32.7788	6,8129517E-002	6,7330174E-002	-2,399741090546936E-001	-3,3794279E-004	12	-1,6157499E-005
2	0	0	1	10/07/2024 14:36:33.3788	7,1129292E-002	7,0405491E-002	-1,813372542285476E-001	-4,6178998E-004	12	-1,2767138E-005
2	0	0	1	10/07/2024 14:36:33.9788	7,4129052E-002	7,3374718E-002	-1,516743493393120E-001	-5,6066533E-004	12	-1,1129063E-005
2	0	0	0	10/07/2024 14:36:34.5786	7,7128820E-002	7,6349258E-002	-1,329156488809495E-001	-6,4546574E-004	12	-1,0148011E-005
2	0	0	0	10/07/2024 14:36:35.1786	8,0128580E-002	7,9405472E-002	-1,195097814647741E-001	-7,2082225E-004	12	-9,4897305E-006
2	0	0	0	10/07/2024 14:36:35.7786	8,3128341E-002	8,2382128E-002	-1,091286308562928E-001	-7,8913569E-004	12	-8,9902487E-006
2	0	0	0	10/07/2024 14:36:36.3786	8,6128108E-002	8,5375763E-002	-1,008737569393974E-001	-8,5191178E-004	12	-8,6121736E-006
2	0	0	1	10/07/2024 14:36:36.9784	8,9127868E-002	8,8369392E-002	-9,405041492782770E-002	-9,1013085E-004	12	-8,3111781E-006
2	0	0	1	10/07/2024 14:36:37.5784	9,2127644E-002	9,1337562E-002	-8,811798353537981E-002	-9,6460705E-004	12	-8,0484815E-006
2	0	0	1	10/07/2024 14:36:38.1784	9,5127411E-002	9,4372556E-002	-8,299584770015528E-002	-1,0157556E-003	12	-7,8325302E-006
2	0	0	1	10/07/2024 14:36:38.7784	9,8127171E-002	9,7331189E-002	-7,851200049337614E-002	-1,0640412E-003	12	-7,6416663E-006
2	0	0	1	10/07/2024 14:36:39.3783	1,0112693E-001	1,0037999E-001	-7,444658077705296E-002	-1,1097633E-003	12	-7,4729469E-006
2	0	0	0	10/07/2024 14:36:39.9782	1,0412670E-001	1,0337572E-001	-7,080667592635748E-002	-1,1531583E-003	12	-7,3196911E-006
2	0	0	0	10/07/2024 14:36:40.5782	1,0712647E-001	1,0634602E-001	-6,759107266732267E-002	-1,1945277E-003	12	-7,1880413E-006
2	0	0	0	10/07/2024 14:36:41.1782	1,1012623E-001	1,0938420E-001	-6,456800709613741E-002	-1,2340232E-003	12	-7,0627198E-006
2	0	0	0	10/07/2024 14:36:41.7782	1,1312599E-001	1,1235023E-001	-6,182386845460086E-002	-1,2718023E-003	12	-6,9459261E-006
2	0	0	1	10/07/2024 14:36:42.3780	1,1612576E-001	1,1534811E-001	-5,923450914160866E-002	-1,3079644E-003	12	-6,8325885E-006
2	0	0	1	10/07/2024 14:36:42.9780	1,1912552E-001	1,1836191E-001	-5,688461220755631E-002	-1,3426692E-003	12	-6,7329711E-006
2	0	0	1	10/07/2024 14:36:43.5780	1,2212529E-001	1,2131415E-001	-5,464124086823996E-002	-1,3759992E-003	12	-6,6287557E-006
2	0	0	1	10/07/2024 14:36:44.1780	1,2512505E-001	1,2432583E-001	-5,260228323370064E-002	-1,4080507E-003	12	-6,5398226E-006
2	0	0	0	10/07/2024 14:36:44.7778	1,2812482E-001	1,2735446E-001	-5,070243847224853E-002	-1,4388997E-003	12	-6,4571814E-006
2	0	0	0	10/07/2024 14:36:45.3778	1,3112457E-001	1,3034065E-001	-4,888306095585865E-002	-1,4686426E-003	12	-6,3714501E-006
2	0	0	0	10/07/2024 14:36:45.9778	1,3412434E-001	1,3336080E-001	-4,714094233897670E-002	-1,4973191E-003	12	-6,2867539E-006
2	0	0	0	10/07/2024 14:36:46.5778	1,3712411E-001	1,3635762E-001	-4,552237955244065E-002	-1,5249877E-003	12	-6,2073232E-006
2	0	0	1	10/07/2024 14:36:47.1976	1,4022386E-001	1,3945097E-001	-4,411432903540861E-002	-1,5526636E-003	13	-6,1517858E-006
2	0	0	1	10/07/2024 14:36:47.7976	1,4322364E-001	1,4245415E-001	-4,264559606306663E-002	-1,5785645E-003	13	-6,0750422E-006
2	0	0	1	10/07/2024 14:36:48.3976	1,4622340E-001	1,4547113E-001	-4,124015669709047E-002	-1,6035959E-003	13	-5,9992522E-006
2	0	0	1	10/07/2024 14:36:48.9976	1,4922316E-001	1,4842655E-001	-3,986373795787734E-002	-1,6277928E-003	13	-5,9168369E-006
2	0	0	1	10/07/2024 14:36:49.5975	1,5222293E-001	1,5145203E-001	-3,860640850853342E-002	-1,6511924E-003	13	-5,8470191E-006
2	0	0	0	10/07/2024 14:36:50.1974	1,5522268E-001	1,5445624E-001	-3,733362345861241E-002	-1,6738414E-003	13	-5,7664110E-006
2	0	0	0	10/07/2024 14:36:50.7974	1,5822245E-001	1,5746686E-001	-3,614853025158499E-002	-1,6957454E-003	13	-5,6921954E-006
2	0	0	0	10/07/2024 14:36:51.3974	1,6122222E-001	1,6045730E-001	-3,499573826063387E-002	-1,7169473E-003	13	-5,6153217E-006
2	0	0	0	10/07/2024 14:36:51.9974	1,6422199E-001	1,6346261E-001	-3,389606742972884E-002	-1,7374890E-003	13	-5,5407395E-006
2	0	0	1	10/07/2024 14:36:52.5972	1,6722175E-001	1,6644029E-001	-3,286086488356760E-002	-1,7573813E-003	13	-5,4693719E-006
2	0	0	1	10/07/2024 14:36:53.1972	1,7022151E-001	1,6946046E-001	-3,183095834572763E-002	-1,7766698E-003	13	-5,3940889E-006
2	0	0	1	10/07/2024 14:36:53.7972	1,7322129E-001	1,7244773E-001	-3,085662581421458E-002	-1,7953624E-003	13	-5,3211547E-006
2	0	0	1	10/07/2024 14:36:54.3972	1,7622106E-001	1,7542861E-001	-2,993332875587362E-002	-1,8134784E-003	13	-5,2511623E-006
2	0	0	0	10/07/2024 14:36:54.9970	1,7922080E-001	1,7843072E-001	-2,902062533079069E-002	-1,8310446E-003	13	-5,1781713E-006
2	0	0	0	10/07/2024 14:36:55.5970	1,8222056E-001	1,8149650E-001	-2,812664550354244E-002	-1,8480670E-003	13	-5,1048878E-006
2	0	0	0	10/07/2024 14:36:56.1970	1,8522033E-001	1,8447210E-001	-2,725334070351548E-002	-1,8645582E-003	13	-5,0274812E-006
2	0	0	0	10/07/2024 14:36:56.7970	1,8822011E-001	1,8742435E-001	-2,643449444671189E-002	-1,8805373E-003	13	-4,9544678E-006
2	0	0	1	10/07/2024 14:36:57.3968	1,9121988E-001	1,9046041E-001	-2,561962155492187E-002	-1,8960348E-003	13	-4,8795237E-006
2	0	0	1	10/07/2024 14:36:57.9968	1,9421962E-001	1,9345298E-001	-2,482809809241415E-002	-1,9110566E-003	13	-4,8030697E-006
2	0	0	1	10/07/2024 14:36:58.5968	1,9721940E-001	1,9648798E-001	-2,407722065358286E-002	-1,9256136E-003	13	-4,7308845E-006
2	0	0	1	10/07/2024 14:36:59.1968	2,0021914E-001	1,9938931E-001	-2,332551500447466E-002	-1,9397164E-003	13	-4,6508585E-006
2	0	0	1	10/07/2024 14:36:59.7967	2,0321870E-001	2,0249197E-001	-2,261108088662128E-002	-1,9533858E-003	13	-4,5785623E-006
2	0	0	0	10/07/2024 14:37:00.3966	2,0621869E-001	2,0546249E-001	-2,193210986186803E-002	-1,9666411E-003	13	-4,5062257E-006
2	0	0	0	10/07/2024 14:37:00.9966	2,0921846E-001	2,0846991E-001	-2,125918634234272E-002	-1,9794847E-003	13	-4,4319008E-006
2	0	0	0	10/07/2024 14:37:01.5966	2,1221823E-001	2,1147946E-001	-2,060104119422457E-002	-1,9919307E-003	13	-4,3566970E-006
2	0	0	0	10/07/2024 14:37:02.1966	2,1521798E-001	2,1446034E-001	-1,998717907833072E-002	-2,0039903E-003	13	-4,2864572E-006
2	0	0	1	10/07/2024 14:37:02.7964	2,1821775E-001	2,1745823E-001	-1,937269612757667E-002	-2,0156673E-003	13	-4,2127522E-006
2	0	0	1	10/07/2024 14:37:03.3964	2,2121753E-001	2,2045505E-001	-1,875679544529557E-002	-2,0269861E-003	13	-4,1350304E-006
2	0	0	1	10/07/2024 14:37:03.9964	2,2421728E-001	2,2344761E-001	-1,820277988547959E-002	-2,0379547E-003	13	-4,0673676E-006
2	0	0	1	10/07/2024 14:37:04.5964	2,2721703E-001	2,2646987E-001	-1,761187638312917E-002	-2,0485835E-003	13	-3,9885595E-006
2	0	0	0	10/07/2024 14:37:05.1962	2,3021680E-001	2,2946988E-001	-1,705157223617970E-002	-2,0588688E-003	13	-3,9128222E-006
2	0	0	0	10/07/2024 14:37:05.7962	2,3321657E-001	2,3246668E-001	-1,651813071474535E-002	-2,0688230E-003	13	-3,8399153E-006
2	0	0	0	10/07/2024 14:37:06.3962	2,3621634E-001	2,3547730E-001	-1,597983254882135E-002	-2,0784582E-003	13	-3,7628879E-006
2	0	0	0	10/07/2024 14:37:06.9962	2,3921610E-001	2,3843487E-001	-1,545532545998224E-002	-2,0877807E-003	13	-3,6850884E-006
2	0	0	1	10/07/2024 14:37:07.5961	2,4221621E-001	2,4145217E-001	-1,498913720542827E-002	-2,0968041E-003	13	-3,6191598E-006
2	0	0	1	10/07/2024 14:37:08.1960	2,4521562E-001	2,4448578E-001	-1,448696067418415E-002	-2,1055287E-003	13	-3,5418559E-006
2	0	0	1	10/07/2024 14:37:08.7960	2,4821538E-001	2,4750274E-001	-1,400287057071932E-002	-2,1139630E-003	13	-3,4657489E-006
2	0	0	1	10/07/2024 14:37:09.3960	2,5121513E-001	2,5045604E-001	-1,354548538670200E-002	-2,1221149E-003	13	-3,3925485E-006
2	0	0	1	10/07/2024 14:37:09.9959	2,5421458E-001	2,5346422E-001	-1,312639060274429E-002	-2,1299990E-003	13	-3,3270703E-006
2	0	0	0	10/07/2024 14:37:10.5958	2,5721470E-001	2,5646663E-001	-1,266128982667014E-002	-2,1376198E-003	13	-3,2471983E-006
2	0	0	0	10/07/2024 14:37:11.1958	2,6021445E-001	2,5945815E-001	-1,223676745752620E-002	-2,1449765E-003	13	-3,1749291E-006
2	0	0	0	10/07/2024 14:37:11.7958	2,6321420E-001	2,6245284E-001	-1,183157926088765E-002	-2,1520779E-003	13	-3,1052316E-006
2	0	0	0	10/07/2024 14:37:12.3958	2,6621395E-001	2,6540190E-001	-1,141535156063822E-002	-2,1589333E-003	13	-3,0296560E-006
2	0	0	1	10/07/2024 14:37:12.9956	2,6921377E-001	2,6847404E-001	-1,102251549029103E-002	-2,1655452E-003	13	-2,9592593E-006
2	0	0	1	10/07/2024 14:37:13.5956	2,7221349E-001	2,7146342E-001	-1,065634282162233E-002	-2,1719325E-003	13	-2,8928073E-006
2	0	0	1	10/07/2024 14:37:14.1956	2,7521324E-001	2,7446556E-001	-1,028419307414850E-002	-2,1780946E-003	13	-2,8226568E-006
2	0	0	1	10/07/2024 14:37:14.7956	2,7821305E-001	2,7743053E-001	-9,905497570967743E-003	-2,1840381E-003	13	-2,7480876E-006
2	0	0	0	10/07/2024 14:37:15.3954	2,8121278E-001	2,8045282E-001	-9,556223508213418E-003	-2,1897585E-003	13	-2,6800699E-006
2	0	0	0	10/07/2024 14:37:15.9954	2,8421259E-001	2,8350583E-001	-9,215961002743120E-003	-2,1952721E-003	13	-2,6127786E-006
2	0	0	0	10/07/2024 14:37:16.5954	2,8721234E-001	2,8644431E-001	-8,868606022546938E-003	-2,2005772E-003	13	-2,5403617E-006
2	0	0	0	10/07/2024 14:37:17.1954	2,9021209E-001	2,8946978E-001	-8,547641976542175E-003	-2,2056859E-003	13	-2,4742840E-006
2	0	0	1	10/07/2024 14:37:17.7953	2,9321218E-001	2,9245946E-001	-8,229969729158515E-003	-2,2105970E-003	13	-2,4069325E-006
2	0	0	1	10/07/2024 14:37:18.3952	2,9621160E-001	2,9545915E-001	-7,909533387098086E-003	-2,2153142E-003	13	-2,3369441E-006
2	0	0	1	10/07/2024 14:37:18.9952	2,9921138E-001	2,9848674E-001	-7,606575675158177E-003	-2,2198481E-003	13	-2,2704619E-006
2	0	0	1	10/07/2024 14:37:19.5952	3,0221117E-001	3,0141774E-001	-7,300627140485100E-003	-2,2242009E-003	13	-2,2005386E-006
2	0	0	1	10/07/2024 14:37:20.1952	3,0521092E-001	3,0441141E-001	-7,028702798810543E-003	-2,2283783E-003	13	-2,1396174E-006
2	0	0	0	10/07/2024 14:37:20.7950	3,0821070E-001	3,0743155E-001	-6,743315906927005E-003	-2,2323825E-003	13	-2,0731081E-006
2	0	0	0	10/07/2024 14:37:21.3950	3,1121045E-001	3,1046230E-001	-6,479256078080878E-003	-2,2362233E-003	13	-2,0115647E-006
2	0	0	0	10/07/2024 14:37:21.9950	3,1421021E-001	3,1344959E-001	-6,206447502773466E-003	-2,2399025E-003	13	-1,9454085E-006
2	0	0	0	10/07/2024 14:37:22.5950	3,1720999E-001	3,1639758E-001	-5,940320349556855E-003	-2,2434196E-003	13	-1,8795030E-006
2	0	0	1	10/07/2024 14:37:23.1948	3,2020974E-001	3,1944850E-001	-5,682478708549273E-003	-2,2467822E-003	13	-1,8152593E-006
2	0	0	1	10/07/2024 14:37:23.7948	3,2320946E-001	3,2242304E-001	-5,451263799614539E-003	-2,2499957E-003	13	-1,7576131E-006
2	0	0	1	10/07/2024 14:37:24.3948	3,2620925E-001	3,2545379E-001	-5,220212071369522E-003	-2,2530640E-003	13	-1,6989378E-006
2	0	0	1	10/07/2024 14:37:24.9948	3,2920903E-001	3,2841134E-001	-4,972725283982030E-003	-2,2559878E-003	13	-1,6330994E-006
2	0	0	0	10/07/2024 14:37:25.5946	3,3220881E-001	3,3142513E-001	-4,742652117260167E-003	-2,2587674E-003	13	-1,5718341E-006
2	0	0	0	10/07/2024 14:37:26.2146	3,3530855E-001	3,3442619E-001	-5,463599630136817E-003	-2,2615022E-003	14	-1,8271709E-006
2	0	0	0	10/07/2024 14:37:26.8146	3,3830830E-001	3,3744213E-001	-5,270936833730200E-003	-2,2640191E-003	14	-1,7786361E-006
2	0	0	0	10/07/2024 14:37:27.4146	3,4130809E-001	3,4039757E-001	-5,072573054580046E-003	-2,2664093E-003	14	-1,7266915E-006
2	0	0	1	10/07/2024 14:37:28.0145	3,4430808E-001	3,4339991E-001	-4,871612019316365E-003	-2,2686743E-003	14	-1,6729111E-006
2	0	0	1	10/07/2024 14:37:28.6144	3,4730762E-001	3,4638160E-001	-4,669017216821350E-003	-2,2708161E-003	14	-1,6172617E-006
2	0	0	1	10/07/2024 14:37:29.2144	3,5030738E-001	3,4943464E-001	-4,456961414912163E-003	-2,2728387E-003	14	-1,5574167E-006
2	0	0	1	10/07/2024 14:37:29.8144	3,5330716E-001	3,5241553E-001	-4,256720574878373E-003	-2,2747442E-003	14	-1,5001344E-006
2	0	0	1	10/07/2024 14:37:30.4143	3,5630646E-001	3,5538861E-001	-4,066243799597559E-003	-2,2765356E-003	14	-1,4450967E-006
2	0	0	0	10/07/2024 14:37:31.0142	3,5930666E-001	3,5842401E-001	-3,880276502411809E-003	-2,2782143E-003	14	-1,3907843E-006
2	0	0	0	10/07/2024 14:37:31.6142	3,6230642E-001	3,6139220E-001	-3,686187522454969E-003	-2,2797892E-003	14	-1,3321594E-006
2	0	0	0	10/07/2024 14:37:32.2142	3,6530620E-001	3,6442718E-001	-3,538289213106394E-003	-2,2812600E-003	14	-1,2894487E-006
2	0	0	0	10/07/2024 14:37:32.8142	3,6830595E-001	3,6735713E-001	-3,377187564471983E-003	-2,2826295E-003	14	-1,2406340E-006
2	0	0	1	10/07/2024 14:37:33.4140	3,7130573E-001	3,7040913E-001	-3,195604257402538E-003	-2,2839021E-003	14	-1,1836810E-006
2	0	0	1	10/07/2024 14:37:34.0140	3,7430549E-001	3,7337944E-001	-3,015783240310793E-003	-2,2850756E-003	14	-1,1260314E-006
2	0	0	1	10/07/2024 14:37:34.6140	3,7730527E-001	3,7638897E-001	-2,905336013081617E-003	-2,2861545E-003	14	-1,0935364E-006
2	0	0	1	10/07/2024 14:37:35.2140	3,8030505E-001	3,7939322E-001	-2,748211789643268E-003	-2,2871459E-003	14	-1,0426529E-006
2	0	0	0	10/07/2024 14:37:35.8138	3,8330480E-001	3,8241762E-001	-2,607777451936900E-003	-2,2880482E-003	14	-9,9726003E-007
2	0	0	0	10/07/2024 14:37:36.4138	3,8630453E-001	3,8542399E-001	-2,450303924160419E-003	-2,2888645E-003	14	-9,4440588E-007
2	0	0	0	10/07/2024 14:37:37.0138	3,8930431E-001	3,8845685E-001	-2,300581453852341E-003	-2,2895979E-003	14	-8,9367660E-007
2	0	0	0	10/07/2024 14:37:37.6138	3,9230406E-001	3,9136985E-001	-2,181846422190530E-003	-2,2902510E-003	14	-8,5390889E-007
2	0	0	1	10/07/2024 14:37:38.2137	3,9530393E-001	3,9445165E-001	-2,056002435519021E-003	-2,2908237E-003	14	-8,1099353E-007
2	0	0	1	10/07/2024 14:37:38.8136	3,9830357E-001	3,9739424E-001	-1,892211307002529E-003	-2,2913159E-003	14	-7,5195385E-007
2	0	0	1	10/07/2024 14:37:39.4136	4,0130338E-001	4,0044090E-001	-1,770626691780752E-003	-2,2917304E-003	14	-7,0903133E-007
2	0	0	1	10/07/2024 14:37:40.0136	4,0430310E-001	4,0344411E-001	-1,619846781226989E-003	-2,2920698E-003	14	-6,5351765E-007
2	0	0	1	10/07/2024 14:37:40.6136	4,0730289E-001	4,0642813E-001	-1,484678435555331E-003	-2,2923371E-003	14	-6,0341506E-007
2	0	0	0	10/07/2024 14:37:41.2134	4,1030264E-001	4,0939417E-001	-1,337853007115183E-003	-2,2925311E-003	14	-5,4770925E-007
2	0	0	0	10/07/2024 14:37:41.8134	4,1330242E-001	4,1251406E-001	-1,223007710389639E-003	-2,2926463E-003	14	-5,0450785E-007
2	0	0	0	10/07/2024 14:37:42.4134	4,1630217E-001	4,1551089E-001	-1,112106947095641E-003	-2,2926952E-003	14	-4,6209254E-007
2	0	0	0	10/07/2024 14:37:43.0134	4,1930193E-001	4,1846949E-001	-9,698876766111534E-004	-2,2926792E-003	14	-4,0586841E-007
2	0	0	1	10/07/2024 14:37:43.6132	4,2230174E-001	4,2148858E-001	-8,345529849800434E-004	-2,2925937E-003	14	-3,5175455E-007
2	0	0	1	10/07/2024 14:37:44.2132	4,2530146E-001	4,2452574E-001	-7,250295967071198E-004	-2,2924407E-003	14	-3,0779373E-007
2	0	0	1	10/07/2024 14:37:44.8132	4,2830127E-001	4,2750129E-001	-6,042294110290575E-004	-2,2922228E-003	14	-2,5830886E-007
2	0	0	1	10/07/2024 14:37:45.4132	4,3130100E-001	4,3048647E-001	-4,708030207160509E-004	-2,2919418E-003	14	-2,0267433E-007
2	0	0	1	10/07/2024 14:37:46.0130	4,3430069E-001	4,3349385E-001	-3,261309176291564E-004	-2,2915949E-003	14	-1,4137575E-007
2	0	0	0	10/07/2024 14:37:46.6130	4,3730053E-001	4,3655220E-001	-2,146382623845414E-004	-2,2911825E-003	14	-9,3700805E-008
2	0	0	0	10/07/2024 14:37:47.2130	4,4030035E-001	4,3951613E-001	-7,034683302613819E-005	-2,2907057E-003	14	-3,0918567E-008
2	0	0	0	10/07/2024 14:37:47.8130	4,4330007E-001	4,4253945E-001	5,433253895560967E-005	-2,2901651E-003	14	2,4044292E-008
2	1	0	1	10/07/2024 14:37:48.4129	4,4629949E-001	4,4551578E-001	1,556728542833307E-004	-2,2895604E-003	14	6,9354712E-008
2	1	0	1	10/07/2024 14:37:49.0128	4,4929960E-001	4,4852987E-001	3,131401867770011E-004	-2,2888896E-003	14	1,4045273E-007
2	1	0	1	10/07/2024 14:37:49.6128	4,5229933E-001	4,5154795E-001	4,578462356334958E-004	-2,2881525E-003	14	2,0673953E-007
2	1	0	1	10/07/2024 14:37:50.2128	4,5529911E-001	4,5455852E-001	6,186167473168011E-004	-2,2873462E-003	14	2,8119752E-007
2	1	0	1	10/07/2024 14:37:50.8128	4,5829889E-001	4,5755005E-001	7,588777043771866E-004	-2,2864668E-003	14	3,4722453E-007
2	1	0	0	10/07/2024 14:37:51.4126	4,6129864E-001	4,6055642E-001	9,406052079956404E-004	-2,2855012E-003	14	4,3320176E-007
2	1	0	0	10/07/2024 14:37:52.0126	4,6429843E-001	4,6354896E-001	1,161633544528771E-003	-2,2844351E-003	14	5,3847401E-007
2	1	0	0	10/07/2024 14:37:52.6126	4,6729818E-001	4,6655533E-001	1,439439261500043E-003	-2,2832372E-003	14	6,7157805E-007
2	1	0	0	10/07/2024 14:37:53.2126	4,7029796E-001	4,6952033E-001	1,825036650679693E-003	-2,2818656E-003	14	8,5689180E-007
2	1	0	1	10/07/2024 14:37:53.8124	4,7329772E-001	4,7254685E-001	2,284715435063246E-003	-2,2802679E-003	14	1,0796351E-006
2	1	0	1	10/07/2024 14:37:54.4124	4,7629750E-001	4,7550336E-001	2,838623828338854E-003	-2,2783955E-003	14	1,3497752E-006
2	1	0	1	10/07/2024 14:37:55.0124	4,7929725E-001	4,7857758E-001	3,493426871347956E-003	-2,2761978E-003	14	1,6718758E-006
2	1	0	1	10/07/2024 14:37:55.6124	4,8229700E-001	4,8157868E-001	4,180824723175991E-003	-2,2736336E-003	14	2,0133959E-006
2	1	0	1	10/07/2024 14:37:56.2123	4,8529711E-001	4,8457050E-001	5,051303269500589E-003	-2,2706331E-003	14	2,4477126E-006
2	1	0	0	10/07/2024 14:37:56.8122	4,8829654E-001	4,8757759E-001	6,123881123349162E-003	-2,2670848E-003	14	2,9858672E-006
2	1	0	0	10/07/2024 14:37:57.4122	4,9129629E-001	4,9059135E-001	7,378360772436234E-003	-2,2628594E-003	14	3,6197600E-006
2	1	0	0	10/07/2024 14:37:58.0122	4,9429607E-001	4,9361151E-001	8,814996849999424E-003	-2,2578409E-003	14	4,3511841E-006
2	1	0	1	10/07/2024 14:37:58.6321	4,9739543E-001	4,9667466E-001	1,034988261980019E-002	-2,2516861E-003	13	5,1405245E-006
2	1	0	1	10/07/2024 14:37:59.2320	5,0039560E-001	4,9967936E-001	1,217272227456850E-002	-2,2446781E-003	13	6,0824582E-006
2	1	0	1	10/07/2024 14:37:59.8320	5,0339538E-001	5,0266767E-001	1,425647841834586E-002	-2,2364913E-003	13	7,1662707E-006
2	1	0	1	10/07/2024 14:38:00.4320	5,0639516E-001	5,0570899E-001	1,668412371775102E-002	-2,2269413E-003	13	8,4373114E-006
2	1	0	1	10/07/2024 14:38:01.0320	5,0939488E-001	5,0869846E-001	1,957365552999840E-002	-2,2158078E-003	13	9,9570889E-006
2	1	0	0	10/07/2024 14:38:01.6318	5,1239467E-001	5,1167512E-001	2,315572100069032E-002	-2,2027050E-003	13	1,1848207E-005
2	1	0	0	10/07/2024 14:38:02.2318	5,1539445E-001	5,1466453E-001	2,739275293371926E-002	-2,1872569E-003	13	1,4098078E-005
2	1	0	0	10/07/2024 14:38:02.8318	5,1839423E-001	5,1768357E-001	3,256514251771714E-002	-2,1689592E-003	13	1,6858439E-005
2	1	0	0	10/07/2024 14:38:03.4318	5,2139395E-001	5,2065706E-001	3,831287824850771E-002	-2,1473591E-003	13	1,9947871E-005
2	1	0	1	10/07/2024 14:38:04.0316	5,2439374E-001	5,2365178E-001	4,504386511844616E-002	-2,1219631E-003	13	2,3587299E-005
2	1	0	1	10/07/2024 14:38:04.6316	5,2739346E-001	5,2664220E-001	5,226435854422798E-002	-2,0923181E-003	13	2,7524617E-005
2	1	0	1	10/07/2024 14:38:05.2316	5,3039324E-001	5,2967721E-001	6,065379310232466E-002	-2,0579845E-003	13	3,2126933E-005
2	1	0	1	10/07/2024 14:38:05.8316	5,3339303E-001	5,3263575E-001	7,128161064648975E-002	-2,0180058E-003	13	3,7967133E-005
2	1	0	1	10/07/2024 14:38:06.4315	5,3639287E-001	5,3563386E-001	8,721143652694441E-002	-1,9701496E-003	13	4,6713398E-005
2	1	0	0	10/07/2024 14:38:07.0514	5,3949255E-001	5,3877580E-001	1,112854435553412E-001	-1,9082639E-003	12	5,9957903E-005
2	1	0	0	10/07/2024 14:38:07.6514	5,4249227E-001	5,4177368E-001	1,405801657627415E-001	-1,8322050E-003	12	7,6162636E-005
2	1	0	0	10/07/2024 14:38:08.2514	5,4549205E-001	5,4476625E-001	1,726885033811527E-001	-1,7374929E-003	12	9,4074865E-005
2	1	0	1	10/07/2024 14:38:08.8514	5,4849190E-001	5,4778546E-001	2,047260584652630E-001	-1,6233991E-003	12	1,1214596E-004
2	1	0	1	10/07/2024 14:38:09.4512	5,5149156E-001	5,5074191E-001	2,345621595328133E-001	-1,4907127E-003	12	1,2918322E-004
2	1	0	1	10/07/2024 14:38:10.0512	5,5449134E-001	5,5378747E-001	2,611858812467005E-001	-1,3410021E-003	12	1,4464147E-004
2	1	0	1	10/07/2024 14:38:10.6512	5,5749112E-001	5,5678427E-001	2,845427005101930E-001	-1,1763207E-003	12	1,5842890E-004
2	1	0	1	10/07/2024 14:38:11.2512	5,6049085E-001	5,5976099E-001	3,049011764976104E-001	-9,9858211E-004	12	1,7067179E-004
2	1	0	0	10/07/2024 14:38:11.8510	5,6349063E-001	5,6281084E-001	3,229855590979341E-001	-8,0938323E-004	12	1,8177977E-004
2	1	0	0	10/07/2024 14:38:12.4510	5,6649041E-001	5,6580019E-001	3,385546847252936E-001	-6,1003619E-004	12	1,9155431E-004
2	1	0	0	10/07/2024 14:38:13.0510	5,6949019E-001	5,6875670E-001	3,518493649636358E-001	-4,0201406E-004	12	2,0011669E-004
2	1	0	0	10/07/2024 14:38:13.6510	5,7248992E-001	5,7172805E-001	3,626417423157084E-001	-1,8678859E-004	12	2,0733246E-004
2	1	0	1	10/07/2024 14:38:14.2508	5,7548970E-001	5,7473332E-001	3,713909151371868E-001	3,4243400E-005	12	2,1345074E-004
2	1	0	1	10/07/2024 14:38:14.8508	5,7848942E-001	5,7774925E-001	3,783761455894945E-001	2,6005745E-004	12	2,1860654E-004
2	1	0	1	10/07/2024 14:38:15.4508	5,8148926E-001	5,8080751E-001	3,840696561528270E-001	4,8963825E-004	12	2,2307054E-004
2	1	0	1	10/07/2024 14:38:16.0508	5,8448899E-001	5,8377999E-001	3,888711294416942E-001	7,2234496E-004	12	2,2701519E-004
2	1	0	1	10/07/2024 14:38:16.6507	5,8748889E-001	5,8675247E-001	3,939147246864816E-001	9,5790607E-004	12	2,3113044E-004
2	1	0	0	10/07/2024 14:38:17.2506	5,9048849E-001	5,8977354E-001	3,996527700763099E-001	1,1966319E-003	12	2,3570463E-004
2	1	0	0	10/07/2024 14:38:17.8506	5,9348834E-001	5,9273857E-001	4,063263266239650E-001	1,4391168E-003	12	2,4084529E-004
2	1	0	0	10/07/2024 14:38:18.4506	5,9648806E-001	5,9574389E-001	4,145764937907317E-001	1,6860934E-003	12	2,4698142E-004
2	1	0	0	10/07/2024 14:38:19.0506	5,9948784E-001	5,9877044E-001	4,248576299825908E-001	1,9385905E-003	12	2,5439219E-004
2	1	0	1	10/07/2024 14:38:19.6504	6,0248762E-001	6,0175341E-001	4,374121566917601E-001	2,1978777E-003	12	2,6321426E-004
2	1	0	1	10/07/2024 14:38:20.2504	6,0548735E-001	6,0477155E-001	4,524523183923055E-001	2,4655380E-003	12	2,7363028E-004
2	1	0	1	10/07/2024 14:38:20.8504	6,0848713E-001	6,0777885E-001	4,701755447080860E-001	2,7430395E-003	12	2,8576274E-004
2	1	0	1	10/07/2024 14:38:21.4504	6,1148685E-001	6,1074805E-001	4,905084165873319E-001	3,0318885E-003	12	2,9957705E-004
2	1	0	0	10/07/2024 14:38:22.0502	6,1448669E-001	6,1377674E-001	5,137213660349182E-001	3,3337425E-003	12	3,1531023E-004
2	1	0	0	10/07/2024 14:38:22.6502	6,1748642E-001	6,1678529E-001	5,396933747991870E-001	3,6504397E-003	12	3,3287494E-004
2	1	0	0	10/07/2024 14:38:23.2502	6,2048620E-001	6,1977673E-001	5,685836562840363E-001	3,9836545E-003	12	3,5239491E-004
2	1	0	0	10/07/2024 14:38:23.8502	6,2348598E-001	6,2274170E-001	6,001325804115090E-001	4,3350169E-003	12	3,7372758E-004
2	1	0	1	10/07/2024 14:38:24.4500	6,2648571E-001	6,2577355E-001	6,350205081669182E-001	4,7061811E-003	12	3,9737904E-004
2	1	0	1	10/07/2024 14:38:25.0500	6,2948555E-001	6,2876719E-001	6,727850455790789E-001	5,0993110E-003	12	4,2302517E-004
2	1	0	1	10/07/2024 14:38:25.6500	6,3248527E-001	6,3179368E-001	7,138913758943826E-001	5,5161146E-003	12	4,5103207E-004
2	1	0	1	10/07/2024 14:38:26.2500	6,3548499E-001	6,3473636E-001	7,580312561209994E-001	5,9585352E-003	12	4,8115000E-004
2	1	0	1	10/07/2024 14:38:26.8499	6,3848472E-001	6,3775432E-001	8,059904130476081E-001	6,4284457E-003	12	5,1402388E-004
2	1	0	0	10/07/2024 14:38:27.4498	6,4148450E-001	6,4071411E-001	8,579251032888600E-001	6,9282716E-003	12	5,4968474E-004
2	1	0	0	10/07/2024 14:38:28.0498	6,4448434E-001	6,4375871E-001	9,137432454090524E-001	7,4605923E-003	12	5,8823015E-004
2	1	0	0	10/07/2024 14:38:28.6498	6,4748412E-001	6,4679044E-001	9,737867701486157E-001	8,0276998E-003	12	6,2983599E-004
2	1	0	0	10/07/2024 14:38:29.2498	6,5048385E-001	6,4973742E-001	1,038102969273821E+000	8,6321086E-003	12	6,7449437E-004
2	1	0	1	10/07/2024 14:38:29.8696	6,5358359E-001	6,5287954E-001	1,112157439817247E+000	9,2993248E-003	11	7,2610483E-004
2	1	0	1	10/07/2024 14:38:30.4696	6,5658337E-001	6,5584457E-001	1,187834053040563E+000	9,9902721E-003	11	7,7903451E-004
2	1	0	1	10/07/2024 14:38:31.0696	6,5958309E-001	6,5889227E-001	1,269462927305842E+000	1,0728400E-002	11	8,3643931E-004
2	1	0	1	10/07/2024 14:38:31.6696	6,6258287E-001	6,6185725E-001	1,356707571103927E+000	1,1517129E-002	11	8,9794677E-004
2	1	0	0	10/07/2024 14:38:32.2694	6,6558266E-001	6,6485304E-001	1,451278864264559E+000	1,2360207E-002	11	9,6488715E-004
2	1	0	0	10/07/2024 14:38:32.8694	6,6858244E-001	6,6786683E-001	1,552715370917262E+000	1,3262413E-002	11	1,0370071E-003
2	1	0	0	10/07/2024 14:38:33.4694	6,7158216E-001	6,7088270E-001	1,662211673482068E+000	1,4227994E-002	11	1,1151490E-003
2	1	0	0	10/07/2024 14:38:34.0694	6,7458194E-001	6,7384779E-001	1,779232815617611E+000	1,5261675E-002	11	1,1989321E-003
2	1	0	1	10/07/2024 14:38:34.6692	6,7758173E-001	6,7684561E-001	1,905277646081245E+000	1,6367985E-002	11	1,2895789E-003
2	1	0	1	10/07/2024 14:38:35.2692	6,8058145E-001	6,7987317E-001	2,040438381840989E+000	1,7552992E-002	11	1,3872393E-003
2	1	0	1	10/07/2024 14:38:35.8692	6,8358123E-001	6,8284029E-001	2,184478249916143E+000	1,8821767E-002	11	1,4916498E-003
2	1	0	1	10/07/2024 14:38:36.4692	6,8658102E-001	6,8586248E-001	2,337321004325563E+000	2,0179782E-002	11	1,6030808E-003
2	1	0	1	10/07/2024 14:38:37.0691	6,8958074E-001	6,8885291E-001	2,500278015133771E+000	2,1632176E-002	11	1,7223238E-003
2	1	0	0	10/07/2024 14:38:37.6690	6,9258052E-001	6,9190598E-001	2,673496739275739E+000	2,3185570E-002	11	1,8498084E-003
2	1	0	0	10/07/2024 14:38:38.2690	6,9558024E-001	6,9492823E-001	2,856687213338546E+000	2,4846261E-002	11	1,9851925E-003
2	1	0	0	10/07/2024 14:38:38.8690	6,9858003E-001	6,9785929E-001	3,050312738654421E+000	2,6620118E-002	11	2,1286891E-003
2	1	0	0	10/07/2024 14:38:39.4690	7,0157981E-001	7,0085198E-001	3,251867586049912E+000	2,8512405E-002	11	2,2790779E-003
2	1	0	1	10/07/2024 14:38:40.0688	7,0457953E-001	7,0390701E-001	3,464292264849696E+000	3,0528601E-002	11	2,4385396E-003
2	1	0	1	10/07/2024 14:38:40.6688	7,0757931E-001	7,0689535E-001	3,686825278664934E+000	3,2675706E-002	11	2,6061996E-003
2	1	0	1	10/07/2024 14:38:41.2688	7,1057910E-001	7,0989645E-001	3,917525127259765E+000	3,4959015E-002	11	2,7810372E-003
2	1	0	1	10/07/2024 14:38:41.8688	7,1357888E-001	7,1283174E-001	4,157036194353957E+000	3,7383080E-002	11	2,9632673E-003
2	1	0	0	10/07/2024 14:38:42.4686	7,1657866E-001	7,1587521E-001	4,405343132021748E+000	3,9953243E-002	11	3,1536759E-003
2	1	0	0	10/07/2024 14:38:43.0686	7,1957839E-001	7,1886677E-001	4,661847645463332E+000	4,2675897E-002	11	3,3512474E-003
2	1	0	0	10/07/2024 14:38:43.6686	7,2257817E-001	7,2184122E-001	4,927566547242421E+000	4,5555215E-002	11	3,5569207E-003
2	1	0	0	10/07/2024 14:38:44.2686	7,2557795E-001	7,2486460E-001	5,200439767637491E+000	4,8596382E-002	11	3,7696147E-003
2	1	0	1	10/07/2024 14:38:44.8684	7,2857755E-001	7,2784543E-001	5,483087867908154E+000	5,1803228E-002	11	3,9908406E-003
2	1	0	1	10/07/2024 14:38:45.4684	7,3157746E-001	7,3082530E-001	5,770628914237026E+000	5,5182114E-002	11	4,2173215E-003
2	1	0	1	10/07/2024 14:38:46.0684	7,3457724E-001	7,3386139E-001	6,065584561113866E+000	5,8735792E-002	11	4,4512982E-003
2	1	0	1	10/07/2024 14:38:46.6684	7,3757696E-001	7,3680937E-001	6,377203664744542E+000	6,2472984E-002	11	4,6987836E-003
2	1	0	1	10/07/2024 14:38:47.2683	7,4057645E-001	7,3984605E-001	6,683375380007410E+000	6,6393308E-002	11	4,9446691E-003
2	1	0	0	10/07/2024 14:38:47.8682	7,4357647E-001	7,4284756E-001	6,998292736861160E+000	7,0500180E-002	11	5,1986645E-003
2	1	0	0	10/07/2024 14:38:48.4682	7,4657631E-001	7,4587309E-001	7,318975267902246E+000	7,4798822E-002	11	5,4590269E-003
2	1	0	0	10/07/2024 14:38:49.0682	7,4957609E-001	7,4883699E-001	7,648266466093730E+000	7,9292245E-002	11	5,7273051E-003
2	1	0	0	10/07/2024 14:38:49.6682	7,5257587E-001	7,5188154E-001	7,977651618843455E+000	8,3982490E-002	11	5,9982492E-003
2	1	0	1	10/07/2024 14:38:50.2680	7,5557566E-001	7,5489002E-001	8,310259999128675E+000	8,8871248E-002	11	6,2733325E-003
2	1	0	1	10/07/2024 14:38:50.8680	7,5857538E-001	7,5785071E-001	8,653793132021349E+000	9,3963295E-002	11	6,5582832E-003
2	1	0	1	10/07/2024 14:38:51.4680	7,6157510E-001	7,6086563E-001	8,995220118233917E+000	9,9261098E-002	11	6,8441536E-003
2	1	0	1	10/07/2024 14:38:52.0680	7,6457489E-001	7,6387399E-001	9,338596246545286E+000	1,0476443E-001	11	7,1335109E-003
2	1	0	0	10/07/2024 14:38:52.6678	7,6757461E-001	7,6687509E-001	9,686875458680078E+000	1,1047422E-001	11	7,4286233E-003
2	1	0	0	10/07/2024 14:38:53.2678	7,7057439E-001	7,6985705E-001	1,004543996262711E+001	1,1639689E-001	11	7,7335527E-003
2	1	0	0	10/07/2024 14:38:53.8678	7,7357417E-001	7,7285385E-001	1,041346390251402E+001	1,2253815E-001	11	8,0480855E-003
2	1	0	0	10/07/2024 14:38:54.4678	7,7657396E-001	7,7586448E-001	1,077602583757874E+001	1,2890144E-001	11	8,3607361E-003
2	1	0	1	10/07/2024 14:38:55.0877	7,7967417E-001	7,7893060E-001	1,118545880869374E+001	1,3571033E-001	10	8,7126959E-003
2	1	0	1	10/07/2024 14:38:55.6876	7,8267342E-001	7,8196096E-001	1,155121082554061E+001	1,4253396E-001	10	9,0325959E-003
2	1	0	1	10/07/2024 14:38:56.2876	7,8567314E-001	7,8494394E-001	1,191666759013322E+001	1,4957699E-001	10	9,3539162E-003
2	1	0	1	10/07/2024 14:38:56.8876	7,8867304E-001	7,8794187E-001	1,227618570318296E+001	1,5683903E-001	10	9,6729212E-003
2	1	0	1	10/07/2024 14:38:57.4876	7,9167295E-001	7,9091662E-001	1,263983806773477E+001	1,6431811E-001	10	9,9970577E-003
2	1	0	0	10/07/2024 14:38:58.0874	7,9467249E-001	7,9394192E-001	1,302296577018944E+001	1,7201722E-001	10	1,0339478E-002
2	1	0	0	10/07/2024 14:38:58.6874	7,9767227E-001	7,9695988E-001	1,343415775604524E+001	1,7995702E-001	10	1,0706484E-002
2	1	0	0	10/07/2024 14:38:59.2874	8,0067199E-001	7,9996943E-001	1,404452983808623E+001	1,8823032E-001	10	1,1235194E-002
2	1	0	0	10/07/2024 14:38:59.8874	8,0367178E-001	8,0295777E-001	1,443123985228894E+001	1,9677772E-001	10	1,1587677E-002
2	1	0	1	10/07/2024 14:39:00.4872	8,0667156E-001	8,0594081E-001	1,482893104861388E+001	2,0555615E-001	10	1,1951241E-002
2	1	0	1	10/07/2024 14:39:01.0872	8,0967134E-001	8,0894607E-001	1,524027623597728E+001	2,1457621E-001	10	1,2328561E-002
2	1	0	1	10/07/2024 14:39:01.6872	8,1267107E-001	8,1196725E-001	1,565611712759582E+001	2,2384903E-001	10	1,2712254E-002
2	1	0	1	10/07/2024 14:39:02.2872	8,1567085E-001	8,1493217E-001	1,604762253117931E+001	2,3336089E-001	10	1,3077724E-002
2	1	0	0	10/07/2024 14:39:02.8870	8,1867063E-001	8,1797886E-001	1,643021435451072E+001	2,4310544E-001	10	1,3439568E-002
2	1	0	0	10/07/2024 14:39:03.4870	8,2167041E-001	8,2100546E-001	1,686530698494579E+001	2,5309896E-001	10	1,3846509E-002
2	1	0	0	10/07/2024 14:39:04.0870	8,2467008E-001	8,2400334E-001	1,727187542715313E+001	2,6334831E-001	10	1,4232083E-002
2	1	0	0	10/07/2024 14:39:04.6870	8,2766986E-001	8,2695562E-001	1,767911361323463E+001	2,7384302E-001	10	1,4619842E-002
2	1	0	1	10/07/2024 14:39:05.2869	8,3066958E-001	8,3000410E-001	1,809486447435830E+001	2,8457630E-001	10	1,5018811E-002
2	1	0	1	10/07/2024 14:39:05.8868	8,3366948E-001	8,3299589E-001	1,848278812026757E+001	2,9555148E-001	10	1,5396086E-002
2	1	0	1	10/07/2024 14:39:06.4868	8,3666927E-001	8,3599275E-001	1,894429797920786E+001	3,0679128E-001	10	1,5837295E-002
2	1	0	1	10/07/2024 14:39:07.0868	8,3966893E-001	8,3900219E-001	1,936783208963283E+001	3,1828970E-001	10	1,6249653E-002
2	1	0	1	10/07/2024 14:39:07.6868	8,4266871E-001	8,4201181E-001	1,976605076408708E+001	3,3003253E-001	10	1,6643248E-002
2	1	0	0	10/07/2024 14:39:08.2866	8,4566849E-001	8,4497249E-001	2,017127969408256E+001	3,4201118E-001	10	1,7044177E-002
2	1	0	0	10/07/2024 14:39:08.8866	8,4866822E-001	8,4799469E-001	2,067866686925866E+001	3,5428065E-001	10	1,7535400E-002
2	1	0	0	10/07/2024 14:39:09.4866	8,5166800E-001	8,5094810E-001	2,105565064834627E+001	3,6680704E-001	10	1,7917266E-002
2	1	0	0	10/07/2024 14:39:10.0866	8,5466778E-001	8,5399473E-001	2,145684062420909E+001	3,7956667E-001	10	1,8324029E-002
2	1	0	1	10/07/2024 14:39:10.6864	8,5766757E-001	8,5701281E-001	2,185881067714453E+001	3,9255145E-001	10	1,8733282E-002
2	1	0	1	10/07/2024 14:39:11.2864	8,6066735E-001	8,6000746E-001	2,235588987492648E+001	4,0582827E-001	10	1,9226233E-002
2	1	0	1	10/07/2024 14:39:11.8864	8,6366707E-001	8,6301172E-001	2,278539221911200E+001	4,1937229E-001	10	1,9664060E-002
2	1	0	1	10/07/2024 14:39:12.4864	8,6666679E-001	8,6598206E-001	2,320130230523563E+001	4,3316919E-001	10	2,0091912E-002
2	1	0	1	10/07/2024 14:39:13.0863	8,6966693E-001	8,6899298E-001	2,362070686672905E+001	4,4721645E-001	10	2,0526228E-002
2	1	0	0	10/07/2024 14:39:13.6862	8,7266642E-001	8,7196082E-001	2,409188320023128E+001	4,6153027E-001	10	2,1007178E-002
2	1	0	0	10/07/2024 14:39:14.2862	8,7566614E-001	8,7499046E-001	2,453447096972229E+001	4,7610638E-001	10	2,1467429E-002
2	1	0	0	10/07/2024 14:39:14.8862	8,7866592E-001	8,7798530E-001	2,494243534595250E+001	4,9094999E-001	10	2,1899091E-002
2	1	0	1	10/07/2024 14:39:15.4862	8,8166577E-001	8,8099259E-001	2,537616718780370E+001	5,0605178E-001	10	2,2356216E-002
2	1	0	1	10/07/2024 14:39:16.0860	8,8466537E-001	8,8396281E-001	2,583118957024305E+001	5,2141231E-001	10	2,2833811E-002
2	1	0	1	10/07/2024 14:39:16.6860	8,8766527E-001	8,8701177E-001	2,626969461511328E+001	5,3702968E-001	10	2,3301529E-002
2	1	0	1	10/07/2024 14:39:17.2860	8,9066499E-001	8,9000744E-001	2,677092520368879E+001	5,5293936E-001	10	2,3826322E-002
2	1	0	1	10/07/2024 14:39:17.8860	8,9366472E-001	8,9297676E-001	2,711819205749055E+001	5,6911391E-001	10	2,4215916E-002
2	1	0	0	10/07/2024 14:39:18.4858	8,9666438E-001	8,9595437E-001	2,756187122911547E+001	5,8551598E-001	10	2,4694178E-002
2	1	0	0	10/07/2024 14:39:19.0658	8,9956421E-001	8,9891112E-001	2,792674641845528E+001	6,0165656E-001	10	2,5103662E-002
2	1	0	0	10/07/2024 14:39:19.1430	9,0001452E-001	8,9920610E-001	2,824172570970323E+001	6,0381746E-001	10	2,5395133E-002