File: fig_5_ni90fe10_ceo2_tio2_zro2/Activity_1/ZrO2_Activity_1.mpt
EC-Lab ASCII FILE
Nb header lines : 62

Linear Sweep Voltammetry

Run on channel : 1 (SN 10336)
User :
CE vs. WE compliance from -10 V to 10 V
Electrode connection : standard
Potential control : Ewe
Ewe ctrl range : min = -2,50 V, max = 2,50 V
Safety Limits :
	Do not start on E overload
Acquisition started on : 10/01/2024 18:57:04.938
Technique started on : 10/01/2024 18:57:04.938
Loaded Setting File :  C:\EC-lab data\Neethu\2024_10_01_Ni90Fe10_TiO2\Activity_1.mps
Saved on :
	File : Activity_1_C01.mpr
	Directory : C:\EC-lab data\Neethu\2024_10_01_Ni90Fe10_ZrO2\
	Host : 10.54.33.65
Device : VMP3 (SN 0498)
Address : USB
EC-Lab for windows v11.52 (software)
Internet server v11.52 (firmware)
Command interpretor v11.50 (firmware)
Electrode material :
Initial state :
Electrolyte :
Comments :
Electrode surface area : 0,001 cm²
Characteristic mass : 0,001 g
Volume (V) : 0,001 cm³
Thickness (t) : 0,000 cm
Diameter (d) : 0,000 cm
Cell constant (k=t/A) : 0,000 cm-1
Record Ece
Cycle Definition : Charge/Discharge alternance
tR (h:m:s)          0:00:5,0000
dER/dt (mV/h)       0,0
dER (mV)            0
dtR (s)             0,0000
dE/dt               5,000
dE/dt unit          mV/s
Ei (V)              0,064
vs.                 Ref
EL (V)              0,900
vs.                 Ref
record              <I>
dI                  0,000
unit dI             µA
tI (s)              0,0000
step percent        50
N                   10
E range min (V)     -2,500
E range max (V)     2,500
I Range             Auto
I Range min         Unset
I Range max         Unset
I Range init        Unset
Bandwidth           5

mode	ox/red	error	control changes	time/s	control/V	Ewe/V	<I>/mA	(Q-Qo)/C	I Range	<Ece>/V	P/W	Ewe-Ece/V
3	1	0	1	10/01/2024 18:57:04.9380	0,0000000E+000	3,0647519E-001	0,000000000000000E+000	0,0000000E+000	14	2,1413505E-002	0,0000000E+000	2,8506169E-001
2	0	0	1	10/01/2024 18:57:10.1178	6,4755037E-002	6,4000681E-002	-1,142304162976732E-002	-2,6964210E-006	13	2,2182444E-002	-7,3108242E-007	4,1818239E-002
2	0	0	1	10/01/2024 18:57:10.7478	6,7904778E-002	6,7161910E-002	-4,877713633337707E-003	-7,0448132E-006	13	2,2309860E-002	-3,2759655E-007	4,4852048E-002
2	0	0	1	10/01/2024 18:57:11.3878	7,1104519E-002	7,0384674E-002	-3,892529141185583E-003	-9,6363538E-006	14	2,2398308E-002	-2,7397439E-007	4,7986366E-002
2	0	0	1	10/01/2024 18:57:11.9878	7,4104279E-002	7,3353916E-002	-3,282039818211922E-003	-1,1549650E-005	14	2,2472706E-002	-2,4075047E-007	5,0881211E-002
2	0	0	0	10/01/2024 18:57:12.5876	7,7104032E-002	7,6381490E-002	-2,868645504745811E-003	-1,3167678E-005	14	2,2534547E-002	-2,1911141E-007	5,3846940E-002
2	0	0	0	10/01/2024 18:57:13.1876	8,0103792E-002	7,9366624E-002	-2,560971843591116E-003	-1,4581246E-005	14	2,2580700E-002	-2,0325569E-007	5,6785926E-002
2	0	0	0	10/01/2024 18:57:13.7876	8,3103545E-002	8,2359202E-002	-2,334194295225134E-003	-1,5838823E-005	14	2,2628406E-002	-1,9224238E-007	5,9730798E-002
2	0	0	0	10/01/2024 18:57:14.3876	8,6103313E-002	8,5332662E-002	-2,139242289599996E-003	-1,6972308E-005	14	2,2669794E-002	-1,8254724E-007	6,2662870E-002
2	0	0	1	10/01/2024 18:57:14.9874	8,9103065E-002	8,8369794E-002	-1,982631643556550E-003	-1,8001825E-005	14	2,2707285E-002	-1,7520475E-007	6,5662511E-002
2	0	0	1	10/01/2024 18:57:15.5874	9,2102826E-002	9,1368727E-002	-1,835925113725878E-003	-1,8944078E-005	14	2,2738259E-002	-1,6774614E-007	6,8630472E-002
2	0	0	1	10/01/2024 18:57:16.1874	9,5102586E-002	9,4383560E-002	-1,706456680431845E-003	-1,9809389E-005	14	2,2774819E-002	-1,6106145E-007	7,1608737E-002
2	0	0	1	10/01/2024 18:57:16.7874	9,8102331E-002	9,7351737E-002	-1,600228676684905E-003	-2,0607640E-005	14	2,2810945E-002	-1,5578505E-007	7,4540794E-002
2	0	0	0	10/01/2024 18:57:17.3872	1,0110209E-001	1,0035174E-001	-1,499319581065526E-003	-2,1344737E-005	14	2,2836514E-002	-1,5045933E-007	7,7515222E-002
2	0	0	0	10/01/2024 18:57:17.9872	1,0410184E-001	1,0334006E-001	-1,402766127788061E-003	-2,2027554E-005	14	2,2862012E-002	-1,4496193E-007	8,0478050E-002
2	0	0	0	10/01/2024 18:57:18.5872	1,0710160E-001	1,0636234E-001	-1,323952845425386E-003	-2,2659968E-005	14	2,2886600E-002	-1,4081871E-007	8,3475739E-002
2	0	0	0	10/01/2024 18:57:19.1872	1,1010137E-001	1,0938460E-001	-1,238018621482622E-003	-2,3246130E-005	14	2,2907726E-002	-1,3542018E-007	8,6476877E-002
2	0	0	1	10/01/2024 18:57:19.7870	1,1310113E-001	1,1237080E-001	-1,191031273163511E-003	-2,3789584E-005	14	2,2921683E-002	-1,3383715E-007	8,9449123E-002
2	0	0	1	10/01/2024 18:57:20.3870	1,1610088E-001	1,1536231E-001	-1,128997565717813E-003	-2,4293609E-005	14	2,2948984E-002	-1,3024376E-007	9,2413321E-002
2	0	0	1	10/01/2024 18:57:20.9870	1,1910064E-001	1,1830926E-001	-1,039949392170197E-003	-2,4760657E-005	14	2,2973532E-002	-1,2303565E-007	9,5335729E-002
2	0	0	1	10/01/2024 18:57:21.5870	1,2210040E-001	1,2136760E-001	-9,969033880127100E-004	-2,5192479E-005	14	2,2986369E-002	-1,2099177E-007	9,8381236E-002
2	1	0	1	10/01/2024 18:57:22.1869	1,2510015E-001	1,2431882E-001	-9,544796163113117E-004	-2,5592797E-005	14	2,3002623E-002	-1,1865978E-007	1,0131620E-001
2	1	0	0	10/01/2024 18:57:22.7868	1,2809990E-001	1,2734531E-001	-8,947621482597659E-004	-2,5961413E-005	14	2,3018122E-002	-1,1394376E-007	1,0432719E-001
2	1	0	0	10/01/2024 18:57:23.3868	1,3109966E-001	1,3038668E-001	-8,362374716432610E-004	-2,6299547E-005	14	2,3032041E-002	-1,0903423E-007	1,0735464E-001
2	1	0	0	10/01/2024 18:57:23.9868	1,3409942E-001	1,3335484E-001	-8,032099952746084E-004	-2,6610021E-005	14	2,3051349E-002	-1,0711194E-007	1,1030349E-001
2	1	0	1	10/01/2024 18:57:24.5867	1,3709885E-001	1,3631523E-001	-7,663222811603622E-004	-2,6894588E-005	14	2,3061013E-002	-1,0446139E-007	1,1325421E-001
2	1	0	1	10/01/2024 18:57:25.1866	1,4009894E-001	1,3932726E-001	-7,294012847933219E-004	-2,7153377E-005	14	2,3075268E-002	-1,0162548E-007	1,1625199E-001
2	1	0	1	10/01/2024 18:57:25.7866	1,4309871E-001	1,4237499E-001	-6,662754915239457E-004	-2,7388112E-005	14	2,3083363E-002	-9,4860965E-008	1,1929163E-001
2	1	0	1	10/01/2024 18:57:26.3866	1,4609846E-001	1,4536013E-001	-6,190135589709529E-004	-2,7599504E-005	14	2,3095595E-002	-8,9979892E-008	1,2226453E-001
2	1	0	1	10/01/2024 18:57:26.9866	1,4909822E-001	1,4834633E-001	-5,820998862449190E-004	-2,7788705E-005	14	2,3103300E-002	-8,6352387E-008	1,2524304E-001
2	1	0	0	10/01/2024 18:57:27.5864	1,5209797E-001	1,5137073E-001	-5,432599993441273E-004	-2,7955983E-005	14	2,3110658E-002	-8,2233662E-008	1,2826008E-001
2	1	0	0	10/01/2024 18:57:28.1864	1,5509774E-001	1,5434316E-001	-5,118034726344940E-004	-2,8102597E-005	14	2,3123428E-002	-7,8993367E-008	1,3121973E-001
2	1	0	0	10/01/2024 18:57:28.7864	1,5809748E-001	1,5738238E-001	-4,596378241032975E-004	-2,8228795E-005	14	2,3127241E-002	-7,2338899E-008	1,3425514E-001
2	1	0	0	10/01/2024 18:57:29.3864	1,6109724E-001	1,6033994E-001	-4,335833384725336E-004	-2,8335642E-005	14	2,3134278E-002	-6,9520723E-008	1,3720566E-001
2	1	0	1	10/01/2024 18:57:29.9862	1,6409701E-001	1,6331342E-001	-3,851261081060124E-004	-2,8423867E-005	14	2,3134211E-002	-6,2896262E-008	1,4017920E-001
2	1	0	1	10/01/2024 18:57:30.5862	1,6709676E-001	1,6638766E-001	-3,493186567226489E-004	-2,8493600E-005	14	2,3146464E-002	-5,8122314E-008	1,4324120E-001
2	1	0	1	10/01/2024 18:57:31.1862	1,7009653E-001	1,6938023E-001	-3,187428586064831E-004	-2,8545468E-005	14	2,3150835E-002	-5,3988739E-008	1,4622940E-001
2	1	0	1	10/01/2024 18:57:31.7862	1,7309628E-001	1,7237599E-001	-2,693474512612641E-004	-2,8579670E-005	14	2,3160251E-002	-4,6429033E-008	1,4921574E-001
2	1	0	0	10/01/2024 18:57:32.3860	1,7609602E-001	1,7536113E-001	-2,441111671033593E-004	-2,8598222E-005	14	2,3166616E-002	-4,2807610E-008	1,5219451E-001
2	1	0	0	10/01/2024 18:57:32.9860	1,7909579E-001	1,7835370E-001	-2,435982269223752E-004	-2,8599645E-005	14	2,3164451E-002	-4,3446644E-008	1,5518925E-001
2	1	0	0	10/01/2024 18:57:33.5860	1,8209556E-001	1,8136853E-001	-1,985383895113642E-004	-2,8584393E-005	14	2,3169169E-002	-3,6008615E-008	1,5819936E-001
2	1	0	0	10/01/2024 18:57:34.1860	1,8509531E-001	1,8436112E-001	-1,944811289363545E-004	-2,8553710E-005	14	2,3174753E-002	-3,5854757E-008	1,6118637E-001
2	1	0	1	10/01/2024 18:57:34.7858	1,8809506E-001	1,8736853E-001	-1,646102745887539E-004	-2,8508712E-005	14	2,3172742E-002	-3,0842784E-008	1,6419579E-001
2	1	0	1	10/01/2024 18:57:35.3858	1,9109483E-001	1,9034201E-001	-1,291852872421419E-004	-2,8448596E-005	14	2,3182349E-002	-2,4589387E-008	1,6715966E-001
2	1	0	1	10/01/2024 18:57:35.9858	1,9409458E-001	1,9338973E-001	-1,177053490681043E-004	-2,8373459E-005	14	2,3186790E-002	-2,2763006E-008	1,7020294E-001
2	1	0	1	10/01/2024 18:57:36.5858	1,9709434E-001	1,9639289E-001	-1,028536165803313E-004	-2,8284036E-005	14	2,3178045E-002	-2,0199719E-008	1,7321485E-001
2	1	0	0	10/01/2024 18:57:37.1856	2,0009410E-001	1,9930804E-001	-8,885365925172267E-005	-2,8180883E-005	14	2,3180034E-002	-1,7709249E-008	1,7612800E-001
2	1	0	0	10/01/2024 18:57:37.7856	2,0309387E-001	2,0232183E-001	-5,836194944305417E-005	-2,8063938E-005	14	2,3186898E-002	-1,1807896E-008	1,7913494E-001
2	1	0	0	10/01/2024 18:57:38.3856	2,0609361E-001	2,0536423E-001	-2,499341113972492E-005	-2,7932938E-005	14	2,3181811E-002	-5,1327524E-009	1,8218242E-001
2	1	0	0	10/01/2024 18:57:38.9856	2,0909336E-001	2,0839395E-001	-2,007847008763118E-005	-2,7788545E-005	14	2,3182288E-002	-4,1842316E-009	1,8521166E-001
2	1	0	1	10/01/2024 18:57:39.5855	2,1209301E-001	2,1136519E-001	-6,730908375844952E-007	-2,7631542E-005	14	2,3185130E-002	-1,4226798E-010	1,8818006E-001
2	1	0	1	10/01/2024 18:57:40.1854	2,1509288E-001	2,1436742E-001	2,418234601470125E-005	-2,7461951E-005	14	2,3180837E-002	5,1839071E-009	1,9118658E-001
2	1	0	1	10/01/2024 18:57:40.7854	2,1809265E-001	2,1735361E-001	5,104189196673001E-005	-2,7278958E-005	14	2,3179602E-002	1,1094140E-008	1,9417401E-001
2	1	0	1	10/01/2024 18:57:41.3854	2,2109240E-001	2,2037272E-001	6,919553577275647E-005	-2,7083261E-005	14	2,3182612E-002	1,5248808E-008	1,9719011E-001
2	1	0	1	10/01/2024 18:57:41.9854	2,2409217E-001	2,2338967E-001	8,041149484661427E-005	-2,6875246E-005	14	2,3180619E-002	1,7963098E-008	2,0020905E-001
2	1	0	0	10/01/2024 18:57:42.5852	2,2709194E-001	2,2634298E-001	1,039986417571714E-004	-2,6655789E-005	14	2,3175988E-002	2,3539362E-008	2,0316699E-001
2	1	0	0	10/01/2024 18:57:43.1852	2,3009168E-001	2,2936207E-001	1,208931107658847E-004	-2,6423348E-005	14	2,3174990E-002	2,7728294E-008	2,0618708E-001
2	1	0	0	10/01/2024 18:57:43.7852	2,3309141E-001	2,3237269E-001	1,416155577308866E-004	-2,6178590E-005	14	2,3168996E-002	3,2907586E-008	2,0920369E-001
2	1	0	0	10/01/2024 18:57:44.3852	2,3609118E-001	2,3536631E-001	1,648465499866419E-004	-2,5922145E-005	14	2,3169475E-002	3,8799325E-008	2,1219684E-001
2	1	0	1	10/01/2024 18:57:44.9850	2,3909095E-001	2,3835252E-001	1,951398227261368E-004	-2,5654903E-005	14	2,3165230E-002	4,6512071E-008	2,1518730E-001
2	1	0	1	10/01/2024 18:57:45.5850	2,4209070E-001	2,4135251E-001	2,036766732089750E-004	-2,5375355E-005	14	2,3164235E-002	4,9157876E-008	2,1818829E-001
2	1	0	1	10/01/2024 18:57:46.1850	2,4509045E-001	2,4436204E-001	2,165428346339046E-004	-2,5084237E-005	14	2,3158368E-002	5,2914849E-008	2,2120367E-001
2	1	0	1	10/01/2024 18:57:46.7850	2,4809021E-001	2,4736416E-001	2,298210117606652E-004	-2,4781604E-005	14	2,3148367E-002	5,6849483E-008	2,2421579E-001
2	1	0	0	10/01/2024 18:57:47.3848	2,5108996E-001	2,5035354E-001	2,640268636483623E-004	-2,4467936E-005	14	2,3147911E-002	6,6100064E-008	2,2720563E-001
2	1	0	0	10/01/2024 18:57:47.9848	2,5408974E-001	2,5335354E-001	2,684857736580653E-004	-2,4143079E-005	14	2,3139643E-002	6,8021819E-008	2,3021390E-001
2	1	0	0	10/01/2024 18:57:48.5848	2,5708950E-001	2,5638431E-001	2,872822727313139E-004	-2,3806719E-005	14	2,3137417E-002	7,3654668E-008	2,3324689E-001
2	1	0	0	10/01/2024 18:57:49.1848	2,6008925E-001	2,5933868E-001	3,116137294333580E-004	-2,3459852E-005	14	2,3130141E-002	8,0813493E-008	2,3620853E-001
2	1	0	1	10/01/2024 18:57:49.7846	2,6308900E-001	2,6235566E-001	3,236484563586507E-004	-2,3101151E-005	14	2,3125835E-002	8,4911001E-008	2,3922983E-001
2	1	0	1	10/01/2024 18:57:50.3846	2,6608875E-001	2,6534927E-001	3,445200034593566E-004	-2,2732047E-005	14	2,3120467E-002	9,1418130E-008	2,4222881E-001
2	1	0	1	10/01/2024 18:57:50.9846	2,6908851E-001	2,6837155E-001	3,478850090989176E-004	-2,2351211E-005	14	2,3110203E-002	9,3362438E-008	2,4526134E-001
2	1	0	1	10/01/2024 18:57:51.5846	2,7208826E-001	2,7135986E-001	3,662149878861896E-004	-2,1959988E-005	14	2,3100918E-002	9,9376045E-008	2,4825895E-001
2	1	0	0	10/01/2024 18:57:52.1844	2,7508804E-001	2,7435032E-001	3,840200481452227E-004	-2,1557422E-005	14	2,3099858E-002	1,0535602E-007	2,5125045E-001
2	1	0	0	10/01/2024 18:57:52.7844	2,7808779E-001	2,7732378E-001	3,917412902521020E-004	-2,1144651E-005	14	2,3087954E-002	1,0863918E-007	2,5423583E-001
2	1	0	0	10/01/2024 18:57:53.3844	2,8108755E-001	2,8034180E-001	4,027769346691217E-004	-2,0720350E-005	14	2,3086524E-002	1,1291521E-007	2,5725529E-001
2	1	0	0	10/01/2024 18:57:53.9844	2,8408730E-001	2,8333649E-001	4,312660433216046E-004	-2,0284897E-005	14	2,3076069E-002	1,2219341E-007	2,6026043E-001
2	1	0	1	10/01/2024 18:57:54.5843	2,8708750E-001	2,8636351E-001	4,476776421194536E-004	-1,9838786E-005	14	2,3062970E-002	1,2819854E-007	2,6330054E-001
2	1	0	1	10/01/2024 18:57:55.1842	2,9008684E-001	2,8937790E-001	4,578223466274393E-004	-1,9382664E-005	14	2,3059273E-002	1,3248366E-007	2,6631862E-001
2	1	0	1	10/01/2024 18:57:55.7842	2,9308659E-001	2,9232484E-001	4,393716614743866E-004	-1,8915123E-005	14	2,3053817E-002	1,2843925E-007	2,6927102E-001
2	1	0	1	10/01/2024 18:57:56.3842	2,9608637E-001	2,9534924E-001	4,681598302485072E-004	-1,8437104E-005	14	2,3039270E-002	1,3827065E-007	2,7230996E-001
2	1	0	1	10/01/2024 18:57:56.9841	2,9908589E-001	2,9837662E-001	4,792423202876666E-004	-1,7948238E-005	14	2,3029335E-002	1,4299471E-007	2,7534729E-001
2	1	0	0	10/01/2024 18:57:57.5840	3,0208585E-001	3,0133328E-001	4,996204685942772E-004	-1,7448838E-005	14	2,3013165E-002	1,5055227E-007	2,7832010E-001
2	1	0	0	10/01/2024 18:57:58.1840	3,0508560E-001	3,0435029E-001	5,016268499772100E-004	-1,6938755E-005	14	2,3007452E-002	1,5267028E-007	2,8134283E-001
2	1	0	0	10/01/2024 18:57:58.7840	3,0808535E-001	3,0727917E-001	5,259261348137837E-004	-1,6417667E-005	14	2,2989659E-002	1,6160615E-007	2,8428951E-001
2	1	0	0	10/01/2024 18:57:59.3840	3,1108513E-001	3,1032586E-001	5,185094899774452E-004	-1,5886475E-005	14	2,2981022E-002	1,6090691E-007	2,8734484E-001
2	1	0	1	10/01/2024 18:57:59.9838	3,1408489E-001	3,1333643E-001	5,406086127028465E-004	-1,5343778E-005	14	2,2970652E-002	1,6939238E-007	2,9036579E-001
2	1	0	1	10/01/2024 18:58:00.5838	3,1708464E-001	3,1633645E-001	5,424253261724658E-004	-1,4791531E-005	14	2,2962296E-002	1,7158891E-007	2,9337415E-001
2	1	0	1	10/01/2024 18:58:01.1838	3,2008439E-001	3,1937143E-001	5,542045004313179E-004	-1,4227728E-005	14	2,2940781E-002	1,7699709E-007	2,9643065E-001
2	1	0	1	10/01/2024 18:58:01.7838	3,2308415E-001	3,2229504E-001	5,569174559684619E-004	-1,3653234E-005	14	2,2933984E-002	1,7949174E-007	2,9936105E-001
2	1	0	0	10/01/2024 18:58:02.3836	3,2608390E-001	3,2529190E-001	5,729382218263770E-004	-1,3067945E-005	14	2,2917163E-002	1,8637216E-007	3,0237475E-001
2	1	0	0	10/01/2024 18:58:02.9836	3,2908368E-001	3,2830352E-001	5,683241711791952E-004	-1,2472769E-005	14	2,2902038E-002	1,8658282E-007	3,0540147E-001
2	1	0	0	10/01/2024 18:58:03.5836	3,3208343E-001	3,3131841E-001	5,589784700170415E-004	-1,1866193E-005	14	2,2891557E-002	1,8519985E-007	3,0842686E-001
2	1	0	0	10/01/2024 18:58:04.1836	3,3508319E-001	3,3432263E-001	5,880891157866316E-004	-1,1248141E-005	14	2,2875518E-002	1,9661150E-007	3,1144711E-001
2	1	0	1	10/01/2024 18:58:04.7834	3,3808294E-001	3,3731201E-001	5,850984615016488E-004	-1,0620137E-005	14	2,2865193E-002	1,9736073E-007	3,1444681E-001
2	1	0	1	10/01/2024 18:58:05.3834	3,4108266E-001	3,4029502E-001	6,060882439508954E-004	-9,9821636E-006	14	2,2845410E-002	2,0624881E-007	3,1744960E-001
2	1	0	1	10/01/2024 18:58:05.9834	3,4408244E-001	3,4328550E-001	6,161014892295913E-004	-9,3333501E-006	14	2,2829501E-002	2,1149872E-007	3,2045600E-001
2	1	0	1	10/01/2024 18:58:06.5834	3,4708223E-001	3,4628126E-001	6,102960847197869E-004	-8,6738628E-006	14	2,2817895E-002	2,1133410E-007	3,2346338E-001
2	1	0	0	10/01/2024 18:58:07.1832	3,5008195E-001	3,4933534E-001	5,896675333553637E-004	-8,0036389E-006	14	2,2799822E-002	2,0599171E-007	3,2653552E-001
2	1	0	0	10/01/2024 18:58:07.7832	3,5308173E-001	3,5227057E-001	6,144090493573140E-004	-7,3231436E-006	14	2,2783782E-002	2,1643822E-007	3,2948679E-001
2	1	0	0	10/01/2024 18:58:08.3832	3,5608146E-001	3,5528862E-001	6,047693872699741E-004	-6,6325888E-006	14	2,2770014E-002	2,1486768E-007	3,3251861E-001
2	1	0	0	10/01/2024 18:58:08.9832	3,5908124E-001	3,5833001E-001	6,123668301064595E-004	-5,9308841E-006	14	2,2757394E-002	2,1942941E-007	3,3557263E-001
2	1	0	1	10/01/2024 18:58:09.5830	3,6208099E-001	3,6126211E-001	6,269876415572351E-004	-5,2197961E-006	14	2,2731680E-002	2,2650688E-007	3,3853042E-001
2	1	0	1	10/01/2024 18:58:10.1830	3,6508077E-001	3,6429179E-001	6,286349567696300E-004	-4,4973631E-006	14	2,2719642E-002	2,2900655E-007	3,4157214E-001
2	1	0	1	10/01/2024 18:58:10.7830	3,6808053E-001	3,6722708E-001	6,166802579555802E-004	-3,7658122E-006	14	2,2695530E-002	2,2646169E-007	3,4453154E-001
2	1	0	1	10/01/2024 18:58:11.3830	3,7108028E-001	3,7028223E-001	6,130657726157382E-004	-3,0227166E-006	14	2,2678517E-002	2,2700736E-007	3,4760371E-001
2	1	0	1	10/01/2024 18:58:11.9829	3,7408036E-001	3,7327626E-001	5,999371025296107E-004	-2,2692918E-006	14	2,2661591E-002	2,2394228E-007	3,5061467E-001
2	1	0	0	10/01/2024 18:58:12.5828	3,7707976E-001	3,7625146E-001	6,313522261476440E-004	-1,5051278E-006	14	2,2642322E-002	2,3754720E-007	3,5360914E-001
2	1	0	0	10/01/2024 18:58:13.1828	3,8007954E-001	3,7925252E-001	6,179220420355798E-004	-7,3183287E-007	14	2,2621632E-002	2,3434849E-007	3,5663089E-001
2	1	0	0	10/01/2024 18:58:13.7828	3,8307929E-001	3,8225362E-001	6,196130309374564E-004	5,2691334E-008	14	2,2599269E-002	2,3684932E-007	3,5965434E-001
2	1	0	1	10/01/2024 18:58:14.3827	3,8607898E-001	3,8523126E-001	6,083350099720364E-004	8,4891769E-007	14	2,2586918E-002	2,3434966E-007	3,6264434E-001
2	1	0	1	10/01/2024 18:58:14.9826	3,8907886E-001	3,8824719E-001	6,160498116394167E-004	1,6549812E-006	14	2,2566646E-002	2,3917960E-007	3,6568055E-001
2	1	0	1	10/01/2024 18:58:15.5826	3,9207858E-001	3,9125463E-001	6,431235785264559E-004	2,4714147E-006	14	2,2543618E-002	2,5162507E-007	3,6871102E-001
2	1	0	1	10/01/2024 18:58:16.1826	3,9507833E-001	3,9426523E-001	6,228397392525733E-004	3,2983776E-006	14	2,2526905E-002	2,4556405E-007	3,7173831E-001
2	1	0	1	10/01/2024 18:58:16.7826	3,9807805E-001	3,9724824E-001	6,277487779137308E-004	4,1365847E-006	14	2,2502836E-002	2,4937211E-007	3,7474540E-001
2	1	0	0	10/01/2024 18:58:17.3824	4,0107781E-001	4,0026414E-001	6,229591053551558E-004	4,9856521E-006	14	2,2486884E-002	2,4934820E-007	3,7777725E-001
2	1	0	0	10/01/2024 18:58:17.9824	4,0407762E-001	4,0327370E-001	6,625903330759100E-004	5,8458504E-006	14	2,2468418E-002	2,6720525E-007	3,8080528E-001
2	1	0	0	10/01/2024 18:58:18.5824	4,0707734E-001	4,0625989E-001	6,627072523691657E-004	6,7162086E-006	14	2,2443721E-002	2,6923138E-007	3,8381618E-001
2	1	0	0	10/01/2024 18:58:19.1824	4,1007715E-001	4,0927795E-001	6,826247261089262E-004	7,5991343E-006	14	2,2417594E-002	2,7938324E-007	3,8686034E-001
2	1	0	1	10/01/2024 18:58:19.7822	4,1307688E-001	4,1235960E-001	6,846731521982534E-004	8,4973908E-006	14	2,2396339E-002	2,8233154E-007	3,8996327E-001
2	1	0	1	10/01/2024 18:58:20.3822	4,1607663E-001	4,1530228E-001	6,784192228389118E-004	9,4047737E-006	14	2,2369517E-002	2,8174904E-007	3,9293277E-001
2	1	0	1	10/01/2024 18:58:20.9822	4,1907638E-001	4,1830334E-001	6,958835476857574E-004	1,0322885E-005	14	2,2349864E-002	2,9109040E-007	3,9595348E-001
2	1	0	1	10/01/2024 18:58:21.5822	4,2207614E-001	4,2132881E-001	6,813361996221810E-004	1,1254015E-005	14	2,2322718E-002	2,8706657E-007	3,9900610E-001
2	1	0	0	10/01/2024 18:58:22.1820	4,2507592E-001	4,2430651E-001	7,099668642435329E-004	1,2197730E-005	14	2,2304581E-002	3,0124357E-007	4,0200192E-001
2	1	0	0	10/01/2024 18:58:22.7820	4,2807564E-001	4,2729908E-001	7,166525114053676E-004	1,3154158E-005	14	2,2274839E-002	3,0622496E-007	4,0502423E-001
2	1	0	0	10/01/2024 18:58:23.3820	4,3107545E-001	4,3028954E-001	7,312558022735721E-004	1,4122924E-005	14	2,2252435E-002	3,1465171E-007	4,0803710E-001
2	1	0	0	10/01/2024 18:58:23.9820	4,3407518E-001	4,3331286E-001	7,350969707434016E-004	1,5105864E-005	14	2,2218129E-002	3,1852699E-007	4,1109473E-001
2	1	0	1	10/01/2024 18:58:24.5818	4,3707499E-001	4,3631396E-001	7,590979166171058E-004	1,6103775E-005	14	2,2200029E-002	3,3120503E-007	4,1411394E-001
2	1	0	1	10/01/2024 18:58:25.1818	4,4007471E-001	4,3931815E-001	7,853080256741236E-004	1,7115342E-005	14	2,2181783E-002	3,4500007E-007	4,1713637E-001
2	1	0	1	10/01/2024 18:58:25.7818	4,4307443E-001	4,4234148E-001	7,869577957061161E-004	1,8142229E-005	14	2,2150069E-002	3,4810407E-007	4,2019141E-001
2	1	0	1	10/01/2024 18:58:26.3818	4,4607422E-001	4,4531706E-001	7,948032348260893E-004	1,9184607E-005	14	2,2121411E-002	3,5393944E-007	4,2319566E-001
2	1	0	1	10/01/2024 18:58:26.9817	4,4907430E-001	4,4828975E-001	8,350198975545266E-004	2,0244332E-005	14	2,2087393E-002	3,7433085E-007	4,2620236E-001
2	1	0	0	10/01/2024 18:58:27.5816	4,5207372E-001	4,5133933E-001	8,466097719634332E-004	2,1322619E-005	14	2,2056950E-002	3,8210828E-007	4,2928240E-001
2	1	0	0	10/01/2024 18:58:28.1816	4,5507348E-001	4,5431173E-001	8,951802456789379E-004	2,2423115E-005	14	2,2031579E-002	4,0669087E-007	4,3228015E-001
2	1	0	0	10/01/2024 18:58:28.7816	4,5807326E-001	4,5727566E-001	9,451564455586663E-004	2,3547565E-005	14	2,2005344E-002	4,3219703E-007	4,3527031E-001
2	1	0	1	10/01/2024 18:58:29.3815	4,6107298E-001	4,6030647E-001	9,953253981706840E-004	2,4702678E-005	14	2,1968786E-002	4,5815472E-007	4,3833768E-001
2	1	0	1	10/01/2024 18:58:29.9814	4,6407273E-001	4,6330327E-001	1,048977290998322E-003	2,5890595E-005	14	2,1942440E-002	4,8599463E-007	4,4136083E-001
2	1	0	1	10/01/2024 18:58:30.5814	4,6707252E-001	4,6630326E-001	1,138257777624638E-003	2,7119702E-005	14	2,1903262E-002	5,3077332E-007	4,4440001E-001
2	1	0	1	10/01/2024 18:58:31.1814	4,7007230E-001	4,6925020E-001	1,239409897908507E-003	2,8394559E-005	14	2,1866936E-002	5,8159333E-007	4,4738325E-001
2	1	0	1	10/01/2024 18:58:31.7814	4,7307214E-001	4,7231293E-001	1,381994074450537E-003	2,9727353E-005	14	2,1834066E-002	6,5273366E-007	4,5047885E-001
2	1	0	0	10/01/2024 18:58:32.3812	4,7607177E-001	4,7527456E-001	1,568293472591738E-003	3,1130778E-005	14	2,1788925E-002	7,4537002E-007	4,5348564E-001
2	1	0	0	10/01/2024 18:58:32.9812	4,7907156E-001	4,7832766E-001	1,765255658519597E-003	3,2624699E-005	14	2,1742236E-002	8,4437062E-007	4,5658544E-001
2	1	0	0	10/01/2024 18:58:33.5812	4,8207128E-001	4,8131707E-001	2,031824029567635E-003	3,4232049E-005	14	2,1684181E-002	9,7795157E-007	4,5963290E-001
2	1	0	0	10/01/2024 18:58:34.1812	4,8507106E-001	4,8433608E-001	2,382427163698887E-003	3,5987443E-005	14	2,1625888E-002	1,1538955E-006	4,6271020E-001
2	1	0	1	10/01/2024 18:58:34.7810	4,8807082E-001	4,8734033E-001	2,813890675718203E-003	3,7936832E-005	14	2,1562487E-002	1,3713225E-006	4,6577784E-001
2	1	0	1	10/01/2024 18:58:35.3810	4,9107060E-001	4,9036580E-001	3,380052561644954E-003	4,0149094E-005	14	2,1484476E-002	1,6574622E-006	4,6888134E-001
2	1	0	1	10/01/2024 18:58:35.9810	4,9407032E-001	4,9334568E-001	4,127885235409919E-003	4,2713993E-005	14	2,1387544E-002	2,0364744E-006	4,7195813E-001
2	1	0	1	10/01/2024 18:58:36.5810	4,9707007E-001	4,9633187E-001	5,137697314617024E-003	4,5759050E-005	14	2,1258054E-002	2,5500028E-006	4,7507381E-001
2	1	0	0	10/01/2024 18:58:37.1808	5,0006986E-001	4,9932864E-001	6,465794725220603E-003	4,9466540E-005	14	2,1111922E-002	3,2285566E-006	4,7821671E-001
2	1	0	0	10/01/2024 18:58:37.7808	5,0306964E-001	5,0238168E-001	8,190022935193830E-003	5,4055377E-005	14	2,0903686E-002	4,1145177E-006	4,8147801E-001
2	1	0	0	10/01/2024 18:58:38.4008	5,0616938E-001	5,0547290E-001	1,043793471555683E-002	6,0047423E-005	13	2,0651555E-002	5,2760929E-006	4,8482135E-001
2	1	0	0	10/01/2024 18:58:39.0008	5,0916916E-001	5,0846440E-001	1,328908615994279E-002	6,7367408E-005	13	2,0328682E-002	6,7570272E-006	4,8813573E-001
2	1	0	1	10/01/2024 18:58:39.6006	5,1216888E-001	5,1143688E-001	1,698717160959246E-002	7,6670600E-005	13	1,9911518E-002	8,6878663E-006	4,9152535E-001
2	1	0	1	10/01/2024 18:58:40.2006	5,1516867E-001	5,1446021E-001	2,143261561148045E-002	8,8420762E-005	13	1,9381383E-002	1,1026228E-005	4,9507883E-001
2	1	0	1	10/01/2024 18:58:40.8006	5,1816839E-001	5,1743788E-001	2,679460207523060E-002	1,0315244E-004	13	1,8696975E-002	1,3864542E-005	4,9874091E-001
2	1	0	1	10/01/2024 18:58:41.4006	5,2116817E-001	5,2044320E-001	3,275362044876937E-002	1,2129571E-004	13	1,7864682E-002	1,7046399E-005	5,0257850E-001
2	1	0	0	10/01/2024 18:58:42.0004	5,2416790E-001	5,2345800E-001	3,927695769114443E-002	1,4322040E-004	13	1,6856687E-002	2,0559837E-005	5,0660133E-001
2	1	0	0	10/01/2024 18:58:42.6004	5,2716762E-001	5,2646756E-001	4,557663802788192E-002	1,6906481E-004	13	1,5681542E-002	2,3994622E-005	5,1078600E-001
2	1	0	0	10/01/2024 18:58:43.2004	5,3016740E-001	5,2947176E-001	5,098597910952074E-002	1,9850093E-004	13	1,4371306E-002	2,6995636E-005	5,1510048E-001
2	1	0	0	10/01/2024 18:58:43.8004	5,3316718E-001	5,3243357E-001	5,403601197270302E-002	2,3055646E-004	13	1,2961039E-002	2,8770586E-005	5,1947254E-001
2	1	0	1	10/01/2024 18:58:44.4002	5,3616697E-001	5,3549725E-001	5,482091981645199E-002	2,6375710E-004	13	1,1553046E-002	2,9356452E-005	5,2394420E-001
2	1	0	1	10/01/2024 18:58:45.0002	5,3916669E-001	5,3848976E-001	5,331797984454034E-002	2,9671102E-004	13	1,0222266E-002	2,8711185E-005	5,2826750E-001
2	1	0	1	10/01/2024 18:58:45.6002	5,4216647E-001	5,4150677E-001	5,117040024352271E-002	3,2856266E-004	13	8,9792600E-003	2,7709119E-005	5,3252751E-001
2	1	0	1	10/01/2024 18:58:46.2002	5,4516619E-001	5,4448551E-001	4,997691956545153E-002	3,5940309E-004	13	7,7996119E-003	2,7211709E-005	5,3668588E-001
2	1	0	1	10/01/2024 18:58:46.8000	5,4816574E-001	5,4744285E-001	5,044596224990788E-002	3,9005221E-004	13	6,6444245E-003	2,7616281E-005	5,4079843E-001
2	1	0	0	10/01/2024 18:58:47.4000	5,5116570E-001	5,5046111E-001	5,231251540992932E-002	4,2147719E-004	13	5,4478277E-003	2,8796005E-005	5,4501331E-001
2	1	0	0	10/01/2024 18:58:48.0000	5,5416542E-001	5,5348444E-001	5,487726050346664E-002	4,5426120E-004	13	4,2080251E-003	3,0373711E-005	5,4927641E-001
2	1	0	0	10/01/2024 18:58:48.6000	5,5716527E-001	5,5648029E-001	5,785410523535012E-002	4,8873684E-004	13	2,8906655E-003	3,2194668E-005	5,5358964E-001
2	1	0	1	10/01/2024 18:58:49.1999	5,6016493E-001	5,5947804E-001	6,113755816315414E-002	5,2509224E-004	13	1,4904011E-003	3,4205121E-005	5,5798763E-001
2	1	0	1	10/01/2024 18:58:49.7998	5,6316477E-001	5,6248766E-001	6,468532173028479E-002	5,6349294E-004	13	2,3595445E-005	3,6384696E-005	5,6246406E-001
2	1	0	1	10/01/2024 18:58:50.3998	5,6616455E-001	5,6547487E-001	6,838349893989015E-002	6,0409098E-004	13	-1,5323708E-003	3,8669150E-005	5,6700724E-001
2	1	0	1	10/01/2024 18:58:50.9998	5,6916428E-001	5,6849819E-001	7,224801733779374E-002	6,4696354E-004	13	-3,1687310E-003	4,1072868E-005	5,7166690E-001
2	1	0	1	10/01/2024 18:58:51.5997	5,7216364E-001	5,7146907E-001	7,610704684499930E-002	6,9213740E-004	13	-4,8832884E-003	4,3492822E-005	5,7635236E-001
2	1	0	0	10/01/2024 18:58:52.1996	5,7516378E-001	5,7446748E-001	8,017928084271991E-002	7,3968741E-004	13	-6,6951439E-003	4,6060388E-005	5,8116263E-001
2	1	0	0	10/01/2024 18:58:52.7996	5,7816356E-001	5,7746530E-001	8,430048752768254E-002	7,8971102E-004	13	-8,5770357E-003	4,8680606E-005	5,8604234E-001
2	1	0	0	10/01/2024 18:58:53.3996	5,8116329E-001	5,8047384E-001	8,867476463778212E-002	8,4227941E-004	13	-1,0561054E-002	5,1473380E-005	5,9103489E-001
2	1	0	0	10/01/2024 18:58:53.9996	5,8416307E-001	5,8348972E-001	9,307893036966064E-002	8,9748850E-004	13	-1,2614166E-002	5,4310600E-005	5,9610391E-001
2	1	0	1	10/01/2024 18:58:54.5994	5,8716285E-001	5,8645999E-001	9,784745646993365E-002	9,5541123E-004	13	-1,4753171E-002	5,7383619E-005	6,0121316E-001
2	1	0	1	10/01/2024 18:58:55.1994	5,9016258E-001	5,8946955E-001	1,028777257478097E-001	1,0162689E-003	13	-1,6988957E-002	6,0643288E-005	6,0645849E-001
2	1	0	1	10/01/2024 18:58:55.8194	5,9326231E-001	5,9256506E-001	1,085398835679110E-001	1,0825810E-003	12	-1,9375158E-002	6,4316941E-005	6,1194021E-001
2	1	0	1	10/01/2024 18:58:56.4194	5,9626204E-001	5,9555334E-001	1,141409816879299E-001	1,1499920E-003	12	-2,1797229E-002	6,7977046E-005	6,1735058E-001
2	1	0	0	10/01/2024 18:58:57.0192	5,9926182E-001	5,9856927E-001	1,201271751532309E-001	1,2208287E-003	12	-2,4295148E-002	7,1904433E-005	6,2286443E-001
2	1	0	0	10/01/2024 18:58:57.6192	6,0226160E-001	6,0155123E-001	1,267054944189343E-001	1,2954505E-003	12	-2,6909025E-002	7,6219847E-005	6,2846029E-001
2	1	0	0	10/01/2024 18:58:58.2192	6,0526139E-001	6,0457665E-001	1,338153529337816E-001	1,3741822E-003	12	-2,9609725E-002	8,0901635E-005	6,3418639E-001
2	1	0	0	10/01/2024 18:58:58.8192	6,0826111E-001	6,0758626E-001	1,416229149273890E-001	1,4573848E-003	12	-3,2430068E-002	8,6048138E-005	6,4001632E-001
2	1	0	1	10/01/2024 18:58:59.4190	6,1126089E-001	6,1056930E-001	1,501539785704266E-001	1,5454345E-003	12	-3,5348762E-002	9,1679409E-005	6,4591807E-001
2	1	0	1	10/01/2024 18:59:00.0190	6,1426061E-001	6,1355120E-001	1,596082859216446E-001	1,6389305E-003	12	-3,8386084E-002	9,7927856E-005	6,5193731E-001
2	1	0	1	10/01/2024 18:59:00.6190	6,1726040E-001	6,1653960E-001	1,701126209641814E-001	1,7384080E-003	12	-4,1532084E-002	1,0488117E-004	6,5807170E-001
2	1	0	1	10/01/2024 18:59:01.2190	6,2026018E-001	6,1961269E-001	1,816932154595521E-001	1,8445093E-003	12	-4,4771835E-002	1,1257942E-004	6,6438454E-001
2	1	0	0	10/01/2024 18:59:01.8188	6,2325990E-001	6,2257034E-001	1,945001661340349E-001	1,9578980E-003	12	-4,8147783E-002	1,2109004E-004	6,7071813E-001
2	1	0	0	10/01/2024 18:59:02.4188	6,2625962E-001	6,2550986E-001	2,088842295752222E-001	2,0794852E-003	12	-5,1615883E-002	1,3065914E-004	6,7712575E-001
2	1	0	0	10/01/2024 18:59:03.0188	6,2925941E-001	6,2856281E-001	2,248657297748489E-001	2,2101768E-003	12	-5,5172406E-002	1,4134223E-004	6,8373519E-001
2	1	0	0	10/01/2024 18:59:03.6188	6,3225919E-001	6,3156074E-001	2,427441715949188E-001	2,3510156E-003	12	-5,8818009E-002	1,5330769E-004	6,9037873E-001
2	1	0	1	10/01/2024 18:59:04.2186	6,3525879E-001	6,3451076E-001	2,626216113629368E-001	2,5031308E-003	12	-6,2554397E-002	1,6663624E-004	6,9706517E-001
2	1	0	1	10/01/2024 18:59:04.8186	6,3825870E-001	6,3752568E-001	2,849624354683700E-001	2,6679318E-003	12	-6,6353254E-002	1,8167087E-004	7,0387894E-001
2	1	0	1	10/01/2024 18:59:05.4186	6,4125842E-001	6,4055330E-001	3,098620461646350E-001	2,8469102E-003	12	-7,0234887E-002	1,9848316E-004	7,1078819E-001
2	1	0	1	10/01/2024 18:59:06.0186	6,4425820E-001	6,4360100E-001	3,378549458526598E-001	3,0417973E-003	12	-7,4188359E-002	2,1744378E-004	7,1778935E-001
2	1	0	1	10/01/2024 18:59:06.6185	6,4725798E-001	6,4657336E-001	3,690941519267437E-001	3,2544357E-003	12	-7,8227349E-002	2,3864645E-004	7,2480071E-001
2	1	0	0	10/01/2024 18:59:07.2184	6,5025771E-001	6,4956176E-001	4,038016652084382E-001	3,4868054E-003	12	-8,2323745E-002	2,6229411E-004	7,3188549E-001
2	1	0	0	10/01/2024 18:59:07.8184	6,5325749E-001	6,5256917E-001	4,428211556168904E-001	3,7414045E-003	12	-8,6533651E-002	2,8897144E-004	7,3910284E-001
2	1	0	0	10/01/2024 18:59:08.4184	6,5625721E-001	6,5556490E-001	4,864222236788613E-001	4,0207482E-003	12	-9,0842701E-002	3,1888133E-004	7,4640763E-001
2	1	0	1	10/01/2024 18:59:09.0183	6,5925658E-001	6,5856552E-001	5,350056467244837E-001	4,3277475E-003	12	-9,5294066E-002	3,5233627E-004	7,5385958E-001
2	1	0	1	10/01/2024 18:59:09.6182	6,6225678E-001	6,6156596E-001	5,885439983267089E-001	4,6653873E-003	12	-9,9881612E-002	3,8936068E-004	7,6144755E-001
2	1	0	1	10/01/2024 18:59:10.2182	6,6525656E-001	6,6459250E-001	6,485762024792516E-001	5,0372090E-003	12	-1,0466584E-001	4,3103888E-004	7,6925832E-001
2	1	0	1	10/01/2024 18:59:10.8182	6,6825634E-001	6,6754264E-001	7,147967518980991E-001	5,4469439E-003	12	-1,0967868E-001	4,7715730E-004	7,7722132E-001
2	1	0	1	10/01/2024 18:59:11.4182	6,7125607E-001	6,7059350E-001	7,882814068820281E-001	5,8986316E-003	12	-1,1497425E-001	5,2861637E-004	7,8556776E-001
2	1	0	0	10/01/2024 18:59:12.0180	6,7425579E-001	6,7356062E-001	8,687280277191523E-001	6,3964413E-003	12	-1,2053084E-001	5,8514101E-004	7,9409146E-001
2	1	0	0	10/01/2024 18:59:12.6180	6,7725557E-001	6,7653513E-001	9,575896976249592E-001	6,9451993E-003	12	-1,2628964E-001	6,4784306E-004	8,0282474E-001
2	1	0	0	10/01/2024 18:59:13.2180	6,8025535E-001	6,7955750E-001	1,054613580703396E+000	7,5497469E-003	12	-1,3231167E-001	7,1667059E-004	8,1186914E-001
2	1	0	0	10/01/2024 18:59:13.8380	6,8335509E-001	6,8266988E-001	1,165701028322826E+000	8,2392599E-003	11	-1,3877146E-001	7,9578900E-004	8,2144135E-001
2	1	0	1	10/01/2024 18:59:14.4378	6,8635482E-001	6,8566144E-001	1,279553453549916E+000	8,9736748E-003	11	-1,4546011E-001	8,7734044E-004	8,3112156E-001
2	1	0	1	10/01/2024 18:59:15.0378	6,8935460E-001	6,8866670E-001	1,403059697517799E+000	9,7794952E-003	11	-1,5262023E-001	9,6624048E-004	8,4128690E-001
2	1	0	1	10/01/2024 18:59:15.6378	6,9235438E-001	6,9168586E-001	1,535297633028349E+000	1,0662100E-002	11	-1,6035002E-001	1,0619437E-003	8,5203588E-001
2	1	0	1	10/01/2024 18:59:16.2378	6,9535410E-001	6,9466978E-001	1,676503471337483E+000	1,1627025E-002	11	-1,6868749E-001	1,1646163E-003	8,6335731E-001
2	1	0	0	10/01/2024 18:59:16.8376	6,9835383E-001	6,9769746E-001	1,826007349691155E+000	1,2678807E-002	11	-1,7779650E-001	1,2740007E-003	8,7549394E-001
2	1	0	0	10/01/2024 18:59:17.4376	7,0135355E-001	7,0069534E-001	1,983332950444449E+000	1,3822912E-002	11	-1,8762313E-001	1,3897121E-003	8,8831848E-001
2	1	0	0	10/01/2024 18:59:18.0376	7,0435339E-001	7,0369428E-001	2,149981331848906E+000	1,5064360E-002	11	-1,9804618E-001	1,5129296E-003	9,0174043E-001
2	1	0	0	10/01/2024 18:59:18.6376	7,0735306E-001	7,0671439E-001	2,324560207456283E+000	1,6408211E-002	11	-2,0959108E-001	1,6428002E-003	9,1630548E-001
2	1	0	1	10/01/2024 18:59:19.2374	7,1035284E-001	7,0968252E-001	2,506345923728134E+000	1,7858587E-002	11	-2,2198778E-001	1,7787099E-003	9,3167031E-001
2	1	0	1	10/01/2024 18:59:19.8374	7,1335262E-001	7,1266657E-001	2,694370469505007E+000	1,9420370E-002	11	-2,3578422E-001	1,9201877E-003	9,4845080E-001
2	1	0	1	10/01/2024 18:59:20.4374	7,1635240E-001	7,1568358E-001	2,891043478855334E+000	2,1097822E-002	11	-2,5155619E-001	2,0690723E-003	9,6723974E-001
2	1	0	1	10/01/2024 18:59:21.0374	7,1935213E-001	7,1864003E-001	3,093502395176017E+000	2,2895146E-002	11	-2,6945892E-001	2,2231147E-003	9,8809898E-001
2	1	0	1	10/01/2024 18:59:21.6372	7,2235185E-001	7,2169095E-001	3,303395383864057E+000	2,4815682E-002	11	-2,8926811E-001	2,3840305E-003	1,0109590E+000
2	1	0	0	10/01/2024 18:59:22.2372	7,2535169E-001	7,2462529E-001	3,518155437275389E+000	2,6864463E-002	11	-3,1168881E-001	2,5493444E-003	1,0363141E+000
2	1	0	0	10/01/2024 18:59:22.8372	7,2835147E-001	7,2762841E-001	3,740247715120965E+000	2,9044123E-002	11	-3,3738449E-001	2,7215106E-003	1,0650129E+000
2	1	0	0	10/01/2024 18:59:23.4372	7,3135114E-001	7,3063791E-001	3,967404977973885E+000	3,1358417E-002	11	-3,6648953E-001	2,8987364E-003	1,0971274E+000
2	1	0	1	10/01/2024 18:59:24.0371	7,3435098E-001	7,3369092E-001	4,199735065920898E+000	3,3810291E-002	11	-3,9825168E-001	3,0813075E-003	1,1319426E+000
2	1	0	1	10/01/2024 18:59:24.6370	7,3735070E-001	7,3666549E-001	4,436319800393644E+000	3,6403146E-002	11	-4,3365094E-001	3,2680838E-003	1,1703165E+000
2	1	0	1	10/01/2024 18:59:25.2370	7,4035048E-001	7,3962951E-001	4,679154721145721E+000	3,9139729E-002	11	-4,7225866E-001	3,4608408E-003	1,2118882E+000
2	1	0	1	10/01/2024 18:59:25.8370	7,4335021E-001	7,4265069E-001	4,926778241586526E+000	4,2024288E-002	11	-5,1379716E-001	3,6588754E-003	1,2564478E+000
2	1	0	1	10/01/2024 18:59:26.4369	7,4634951E-001	7,4563855E-001	5,177699668140264E+000	4,5057893E-002	11	-5,5677384E-001	3,8606925E-003	1,3024124E+000
2	1	0	0	10/01/2024 18:59:27.0368	7,4934977E-001	7,4861455E-001	5,432952509817120E+000	4,8243009E-002	11	-6,0009897E-001	4,0671872E-003	1,3487135E+000
2	1	0	0	10/01/2024 18:59:27.6368	7,5234956E-001	7,5162518E-001	5,689360107086134E+000	5,1582150E-002	11	-6,4360654E-001	4,2762663E-003	1,3952317E+000
2	1	0	0	10/01/2024 18:59:28.2368	7,5534928E-001	7,5469840E-001	5,952105732258730E+000	5,5077344E-002	11	-6,8561471E-001	4,4920444E-003	1,4403131E+000
2	1	0	0	10/01/2024 18:59:28.8368	7,5834900E-001	7,5764000E-001	6,217856411794694E+000	5,8730695E-002	11	-7,2446209E-001	4,7108969E-003	1,4821022E+000
2	1	0	1	10/01/2024 18:59:29.4366	7,6134878E-001	7,6067084E-001	6,486508932851621E+000	6,2543578E-002	11	-7,5964415E-001	4,9340981E-003	1,5203149E+000
2	1	0	1	10/01/2024 18:59:30.0366	7,6434851E-001	7,6367193E-001	6,757537122283665E+000	6,6519432E-002	11	-7,9245168E-001	5,1605413E-003	1,5561236E+000
2	1	0	1	10/01/2024 18:59:30.6366	7,6734829E-001	7,6664639E-001	7,033170635602893E+000	7,0659518E-002	11	-8,2515544E-001	5,3919549E-003	1,5918019E+000
2	1	0	1	10/01/2024 18:59:31.2366	7,7034807E-001	7,6962197E-001	7,309207181744029E+000	7,4964657E-002	11	-8,6020982E-001	5,6253262E-003	1,6298318E+000
2	1	0	0	10/01/2024 18:59:31.8364	7,7334774E-001	7,7266759E-001	7,595667860134933E+000	7,9436958E-002	11	-8,9803112E-001	5,8689262E-003	1,6706986E+000
2	1	0	0	10/01/2024 18:59:32.4364	7,7634752E-001	7,7566546E-001	7,874936523824051E+000	8,4080778E-002	11	-9,3850875E-001	6,1083161E-003	1,7141743E+000
2	1	0	0	10/01/2024 18:59:33.0364	7,7934730E-001	7,7864105E-001	8,160833187789848E+000	8,8893622E-002	11	-9,8062456E-001	6,3543599E-003	1,7592657E+000
2	1	0	0	10/01/2024 18:59:33.6364	7,8234708E-001	7,8161764E-001	8,451605750184477E+000	9,3881853E-002	11	-1,0230105E+000	6,6059241E-003	1,8046281E+000
2	1	0	1	10/01/2024 18:59:34.2362	7,8534675E-001	7,8466964E-001	8,735207344534189E+000	9,9039212E-002	11	-1,0644597E+000	6,8542520E-003	1,8491293E+000
2	1	0	1	10/01/2024 18:59:34.8362	7,8834653E-001	7,8761661E-001	9,027007030994746E+000	1,0437089E-001	11	-1,1048023E+000	7,1098208E-003	1,8924189E+000
2	1	0	1	10/01/2024 18:59:35.4362	7,9134631E-001	7,9061556E-001	9,313532611207322E+000	1,0987584E-001	11	-1,1443655E+000	7,3634237E-003	1,9349811E+000
2	1	0	1	10/01/2024 18:59:36.0362	7,9434603E-001	7,9367816E-001	9,602017618563721E+000	1,1555436E-001	11	-1,1834235E+000	7,6209116E-003	1,9771017E+000
2	1	0	0	10/01/2024 18:59:36.6360	7,9734582E-001	7,9664093E-001	9,898695013690739E+000	1,2140559E-001	11	-1,2229543E+000	7,8857057E-003	2,0195951E+000
2	1	0	0	10/01/2024 18:59:37.2360	8,0034554E-001	7,9964310E-001	1,019463720390586E+001	1,2743789E-001	11	-1,2637032E+000	8,1520714E-003	2,0633464E+000
2	1	0	0	10/01/2024 18:59:37.8360	8,0334526E-001	8,0265898E-001	1,048672370028062E+001	1,3364494E-001	11	-1,3049533E+000	8,4172627E-003	2,1076124E+000
2	1	0	0	10/01/2024 18:59:38.4360	8,0634516E-001	8,0564737E-001	1,079065992718650E+001	1,4003116E-001	11	-1,3451105E+000	8,6934669E-003	2,1507578E+000
2	1	0	1	10/01/2024 18:59:39.0758	8,0954480E-001	8,0886793E-001	1,114271925967569E+001	1,4704774E-001	10	-1,3840536E+000	9,0129878E-003	2,1929216E+000
2	1	0	1	10/01/2024 18:59:39.6758	8,1254458E-001	8,1188381E-001	1,143808793845901E+001	1,5382586E-001	10	-1,4148387E+000	9,2863981E-003	2,2267225E+000
2	1	0	1	10/01/2024 18:59:40.2758	8,1554437E-001	8,1485844E-001	1,174125528173374E+001	1,6078071E-001	10	-1,4395818E+000	9,5674610E-003	2,2544403E+000
2	1	0	1	10/01/2024 18:59:40.8758	8,1854415E-001	8,1785208E-001	1,208985921003921E+001	1,6793527E-001	10	-1,4579104E+000	9,8877167E-003	2,2757626E+000
2	1	0	1	10/01/2024 18:59:41.4757	8,2154357E-001	8,2089210E-001	1,239003617478221E+001	1,7528099E-001	10	-1,4699482E+000	1,0170883E-002	2,2908401E+000
2	1	0	0	10/01/2024 18:59:42.0756	8,2454360E-001	8,2387638E-001	1,272674318276296E+001	1,8281534E-001	10	-1,4774144E+000	1,0485264E-002	2,3012908E+000
2	1	0	0	10/01/2024 18:59:42.6756	8,2754338E-001	8,2686371E-001	1,302675565854224E+001	1,9054449E-001	10	-1,4814336E+000	1,0771352E-002	2,3082974E+000
2	1	0	0	10/01/2024 18:59:43.2756	8,3054316E-001	8,2992208E-001	1,334055306946610E+001	1,9845772E-001	10	-1,4835392E+000	1,1071620E-002	2,3134613E+000
2	1	0	0	10/01/2024 18:59:43.8756	8,3354288E-001	8,3290184E-001	1,364028811049295E+001	2,0655581E-001	10	-1,4852103E+000	1,1361021E-002	2,3181121E+000
2	1	0	1	10/01/2024 18:59:44.4754	8,3654261E-001	8,3591461E-001	1,396820502243344E+001	2,1483591E-001	10	-1,4860971E+000	1,1676227E-002	2,3220117E+000
2	1	0	1	10/01/2024 18:59:45.0754	8,3954239E-001	8,3892423E-001	1,426337064907395E+001	2,2331029E-001	10	-1,4867057E+000	1,1965888E-002	2,3256299E+000
2	1	0	1	10/01/2024 18:59:45.6754	8,4254223E-001	8,4188384E-001	1,466919280463608E+001	2,3197624E-001	10	-1,4876915E+000	1,2349756E-002	2,3295753E+000
2	1	0	1	10/01/2024 18:59:46.2754	8,4554195E-001	8,4484559E-001	1,498264582951862E+001	2,4087462E-001	10	-1,4885553E+000	1,2658022E-002	2,3334010E+000
2	1	0	0	10/01/2024 18:59:46.8752	8,4854168E-001	8,4790504E-001	1,532309500754832E+001	2,4997288E-001	10	-1,4892356E+000	1,2992529E-002	2,3371406E+000
2	1	0	0	10/01/2024 18:59:47.4752	8,5154146E-001	8,5089028E-001	1,568687954024659E+001	2,5927272E-001	10	-1,4900302E+000	1,3347813E-002	2,3409204E+000
2	1	0	0	10/01/2024 18:59:48.0752	8,5454118E-001	8,5390288E-001	1,611314784683068E+001	2,6882377E-001	10	-1,4910039E+000	1,3759064E-002	2,3449068E+000
2	1	0	0	10/01/2024 18:59:48.6752	8,5754097E-001	8,5688800E-001	1,640092609109792E+001	2,7858111E-001	10	-1,4910128E+000	1,4053756E-002	2,3479009E+000
2	1	0	1	10/01/2024 18:59:49.2750	8,6054075E-001	8,5992515E-001	1,668911354220096E+001	2,8850842E-001	10	-1,4912711E+000	1,4351388E-002	2,3511963E+000
2	1	0	1	10/01/2024 18:59:49.8750	8,6354053E-001	8,6289549E-001	1,702647334661617E+001	2,9861918E-001	10	-1,4913998E+000	1,4692067E-002	2,3542953E+000
2	1	0	1	10/01/2024 18:59:50.4750	8,6654019E-001	8,6590070E-001	1,738897328392994E+001	3,0894503E-001	10	-1,4921631E+000	1,5057124E-002	2,3580637E+000
2	1	0	1	10/01/2024 18:59:51.0750	8,6953998E-001	8,6886793E-001	1,781691336010044E+001	3,1950307E-001	10	-1,4926810E+000	1,5480544E-002	2,3615489E+000
2	1	0	0	10/01/2024 18:59:51.6748	8,7253976E-001	8,7189120E-001	1,815705714825876E+001	3,3031037E-001	10	-1,4932191E+000	1,5830979E-002	2,3651104E+000
2	1	0	0	10/01/2024 18:59:52.2748	8,7553948E-001	8,7491244E-001	1,844939621681531E+001	3,4129253E-001	10	-1,4935244E+000	1,6141606E-002	2,3684368E+000
2	1	0	0	10/01/2024 18:59:52.8748	8,7853926E-001	8,7791443E-001	1,875101629433453E+001	3,5245556E-001	10	-1,4939598E+000	1,6461788E-002	2,3718743E+000
2	1	0	0	10/01/2024 18:59:53.4748	8,8153905E-001	8,8092828E-001	1,904166049049013E+001	3,6380148E-001	10	-1,4944457E+000	1,6774338E-002	2,3753738E+000
2	1	0	1	10/01/2024 18:59:54.0746	8,8453871E-001	8,8392192E-001	1,935838917404621E+001	3,7532300E-001	10	-1,4949237E+000	1,7111305E-002	2,3788457E+000
2	1	0	1	10/01/2024 18:59:54.6746	8,8753861E-001	8,8690597E-001	1,964088116670678E+001	3,8702422E-001	10	-1,4952199E+000	1,7419614E-002	2,3821259E+000
2	1	0	1	10/01/2024 18:59:55.2746	8,9053833E-001	8,8988268E-001	1,993885026348424E+001	3,9889523E-001	10	-1,4955535E+000	1,7743237E-002	2,3854361E+000
2	1	0	1	10/01/2024 18:59:55.8746	8,9353806E-001	8,9286458E-001	2,026651996847187E+001	4,1097105E-001	10	-1,4962175E+000	1,8095259E-002	2,3890820E+000
2	1	0	1	10/01/2024 18:59:56.4745	8,9653802E-001	8,9591795E-001	2,094708022247121E+001	4,2329624E-001	10	-1,4980469E+000	1,8766865E-002	2,3939648E+000
2	1	0	0	10/01/2024 18:59:57.0644	8,9948750E-001	8,9883894E-001	2,121453799976388E+001	4,3573335E-001	10	-1,4984877E+000	1,9068453E-002	2,3973267E+000
2	1	0	0	10/01/2024 18:59:57.1568	8,9998782E-001	8,9934760E-001	2,125947362726384E+001	4,3769458E-001	10	-1,4985048E+000	1,9119658E-002	2,3978524E+000