File: fig_5_ni90fe10_ceo2_tio2_zro2/EIS_1/TiO2_EIS_1.mpt
EC-Lab ASCII FILE
Nb header lines : 65

Potentio Electrochemical Impedance Spectroscopy

Run on channel : 1 (SN 10336)
User :
CE vs. WE compliance from -10 V to 10 V
Electrode connection : standard
Potential control : Ewe
Ewe ctrl range : min = -10,00 V, max = 10,00 V
Safety Limits :
	Do not start on E overload
Acquisition started on : 10/07/2024 14:26:36.787
Technique started on : 10/07/2024 14:31:37.866
Loaded Setting File :  C:\EC-lab data\Neethu\2024_10_01_Ni90Fe10_TiO2\OCP+EIS_1.mps
Saved on :
	File : OCP+EIS_1_02_PEIS_C01.mpr
	Directory : C:\EC-lab data\Neethu\2024_10_07_Ni90Fe10_TiO2\
	Host : 10.54.33.65
Device : VMP3 (SN 0498)
Address : USB
EC-Lab for windows v11.52 (software)
Internet server v11.52 (firmware)
Command interpretor v11.50 (firmware)
Electrode material :
Initial state :
Electrolyte :
Comments :
Electrode surface area : 0,001 cm²
Characteristic mass : 0,001 g
Volume (V) : 0,001 cm³
Thickness (t) : 0,000 cm
Diameter (d) : 0,000 cm
Cell constant (k=t/A) : 0,000 cm-1
Cycle Definition : Charge/Discharge alternance
Mode                Single sine
E (V)               0,7000
vs.                 Ref
tE (h:m:s)          0:00:0,0000
record              0
dI                  0,000
unit dI             mA
dt (s)              0,000
fi                  200,000
unit fi             kHz
ff                  0,100
unit ff             Hz
Nd                  10
Points              per decade
spacing             Logarithmic
Va (mV)             10,0
pw                  0,10
Na                  2
corr                0
E range min (V)     -10,000
E range max (V)     10,000
I Range             Auto
Bandwidth           5
nc cycles           0
goto Ns'            0
nr cycles           0
inc. cycle          0

freq/Hz	Re(Z)/Ohm	-Im(Z)/Ohm	|Z|/Ohm	Phase(Z)/deg	time/s	<Ewe>/V	<I>/mA	Cs/µF	Cp/µF	cycle number	I Range	|Ewe|/V	|I|/A	Ns	(Q-Qo)/mA.h	Re(Y)/Ohm-1	Im(Y)/Ohm-1	|Y|/Ohm-1	Phase(Y)/deg	Re(C)/nF	Im(C)/nF	|C|/nF	Phase(C)/deg	Re(M)	Im(M)	|M|	Phase(M)/deg	Re(Permittivity)	Im(Permittivity)	|Permittivity|	Phase(Permittivity)/deg	Re(Resistivity)/Ohm.cm	Im(Resistivity)/Ohm.cm	|Resistivity|/Ohm.cm	Phase(Resistivity)/deg	Re(Conductivity)/mS/cm	Im(Conductivity)/mS/cm	|Conductivity|/mS/cm	Phase(Conductivity)/deg	Tan(Delta)	Loss Angle(Delta)/deg	dq/mA.h
1,9999814E+005	5,2184334E+000	-5,2384001E-001	5,2446599E+000	5,7322979E+000	10/07/2024 14:31:37.8659	6,9910830E-001	5,3204846E+000	-1,5191320E+000	-1,5155078E-002	1,000000000000000E+000	10	9,1273692E-003	1,7403167E-003	0	1,210314173149825E-003	1,8971667E-001	-1,9044258E-002	1,9067013E-001	-5,7322979E+000	-1,5155085E+001	1,5097314E+002	1,5173189E+002	-9,5732300E+001	0,0000000E+000	0,0000000E+000	0,0000000E+000	9,5732300E+001	0,0000000E+000	0,0000000E+000	0,0000000E+000	-9,5732300E+001	0,0000000E+000	0,0000000E+000	0,0000000E+000	5,7322979E+000	0,0000000E+000	0,0000000E+000	0,0000000E+000	-5,7322979E+000	9,9618835E+000	8,4267700E+001	1,210314173149825E-003
1,5885727E+005	5,0288372E+000	-3,0924585E-001	5,0383368E+000	3,5189443E+000	10/07/2024 14:31:38.2879	6,9911367E-001	5,1821036E+000	-3,2397325E+000	-1,2205134E-002	1,000000000000000E+000	10	1,0463907E-002	2,0768575E-003	0	1,810725001202224E-003	1,9810398E-001	-1,2182306E-002	1,9847819E-001	-3,5189443E+000	-1,2205132E+001	1,9847520E+002	1,9885013E+002	-9,3518944E+001	0,0000000E+000	0,0000000E+000	0,0000000E+000	9,3518944E+001	0,0000000E+000	0,0000000E+000	0,0000000E+000	-9,3518944E+001	0,0000000E+000	0,0000000E+000	0,0000000E+000	3,5189443E+000	0,0000000E+000	0,0000000E+000	0,0000000E+000	-3,5189443E+000	1,6261616E+001	8,6481056E+001	6,004108280523990E-004
1,2617837E+005	4,9479733E+000	-1,7514208E-001	4,9510722E+000	2,0272369E+000	10/07/2024 14:31:38.7099	6,9911683E-001	5,0871572E+000	-7,2018609E+000	-9,0121254E-003	1,000000000000000E+000	10	1,0662436E-002	2,1535610E-003	0	2,398802076727462E-003	2,0185004E-001	-7,1448316E-003	2,0197645E-001	-2,0272369E+000	-9,0121250E+000	2,5460332E+002	2,5476277E+002	-9,2027237E+001	0,0000000E+000	0,0000000E+000	0,0000000E+000	9,2027237E+001	0,0000000E+000	0,0000000E+000	0,0000000E+000	-9,2027237E+001	0,0000000E+000	0,0000000E+000	0,0000000E+000	2,0272369E+000	0,0000000E+000	0,0000000E+000	0,0000000E+000	-2,0272369E+000	2,8251196E+001	8,7972763E+001	5,880770755252386E-004
1,0022640E+005	4,9395757E+000	-9,3879849E-002	4,9404678E+000	1,0888124E+000	10/07/2024 14:31:39.1329	6,9913119E-001	5,0109763E+000	-1,6914751E+001	-6,1076512E-003	1,000000000000000E+000	10	1,0621852E-002	2,1499689E-003	0	2,977996440919013E-003	2,0237343E-001	-3,8462384E-003	2,0240998E-001	-1,0888124E+000	-6,1076589E+000	3,2135977E+002	3,2141782E+002	-9,1088814E+001	0,0000000E+000	0,0000000E+000	0,0000000E+000	9,1088814E+001	0,0000000E+000	0,0000000E+000	0,0000000E+000	-9,1088814E+001	0,0000000E+000	0,0000000E+000	0,0000000E+000	1,0888124E+000	0,0000000E+000	0,0000000E+000	0,0000000E+000	-1,0888124E+000	5,2615932E+001	8,8911186E+001	5,791943641915505E-004
7,9609563E+004	4,9391913E+000	-4,3650698E-002	4,9393840E+000	5,0634521E-001	10/07/2024 14:31:39.5549	6,9912469E-001	4,9444408E+000	-4,5799812E+001	-3,5768482E-003	1,000000000000000E+000	10	1,0536661E-002	2,1331934E-003	0	3,544396798924388E-003	2,0244649E-001	-1,7891454E-003	2,0245440E-001	-5,0634521E-001	-3,5768654E+000	4,0472974E+002	4,0474554E+002	-9,0506348E+001	0,0000000E+000	0,0000000E+000	0,0000000E+000	9,0506348E+001	0,0000000E+000	0,0000000E+000	0,0000000E+000	-9,0506348E+001	0,0000000E+000	0,0000000E+000	0,0000000E+000	5,0634521E-001	0,0000000E+000	0,0000000E+000	0,0000000E+000	-5,0634521E-001	1,1315263E+002	8,9493652E+001	5,664003580053748E-004
6,3233004E+004	4,9474354E+000	-1,1463580E-002	4,9474487E+000	1,3275839E-001	10/07/2024 14:31:39.9779	6,9911414E-001	4,8837152E+000	-2,1956143E+002	-1,1787832E-003	1,000000000000000E+000	10	1,0397155E-002	2,1015184E-003	0	4,104847129228318E-003	2,0212384E-001	-4,6833613E-004	2,0212437E-001	-1,3275839E-001	-1,1787895E+000	5,0873761E+002	5,0873898E+002	-9,0132759E+001	0,0000000E+000	0,0000000E+000	0,0000000E+000	9,0132759E+001	0,0000000E+000	0,0000000E+000	0,0000000E+000	-9,0132759E+001	0,0000000E+000	0,0000000E+000	0,0000000E+000	1,3275839E-001	0,0000000E+000	0,0000000E+000	0,0000000E+000	-1,3275839E-001	4,3157858E+002	8,9867241E+001	5,604503303039306E-004
5,0224539E+004	4,9596219E+000	1,2591369E-002	4,9596381E+000	-1,4546083E-001	10/07/2024 14:31:40.3999	6,9911540E-001	4,8323579E+000	2,5166985E+002	1,6220983E-003	1,000000000000000E+000	10	1,0372171E-002	2,0913160E-003	0	4,665540436225426E-003	2,0162696E-001	5,1188568E-004	2,0162761E-001	1,4546083E-001	1,6221117E+000	6,3892926E+002	6,3893134E+002	-8,9854538E+001	0,0000000E+000	0,0000000E+000	0,0000000E+000	8,9854538E+001	0,0000000E+000	0,0000000E+000	0,0000000E+000	-8,9854538E+001	0,0000000E+000	0,0000000E+000	0,0000000E+000	-1,4546083E-001	0,0000000E+000	0,0000000E+000	0,0000000E+000	1,4546083E-001	3,9389059E+002	8,9854538E+001	5,606933069971076E-004
3,9897566E+004	4,9803267E+000	3,3859003E-002	4,9804416E+000	-3,8952228E-001	10/07/2024 14:31:40.8219	6,9911784E-001	4,7798452E+000	1,1781472E+002	5,4451795E-003	1,000000000000000E+000	10	1,0324010E-002	2,0729105E-003	0	5,219464053868730E-003	2,0078078E-001	1,3650183E-003	2,0078541E-001	3,8952228E-001	5,4451299E+000	8,0093237E+002	8,0095087E+002	-8,9610481E+001	0,0000000E+000	0,0000000E+000	0,0000000E+000	8,9610481E+001	0,0000000E+000	0,0000000E+000	0,0000000E+000	-8,9610481E+001	0,0000000E+000	0,0000000E+000	0,0000000E+000	-3,8952228E-001	0,0000000E+000	0,0000000E+000	0,0000000E+000	3,8952228E-001	1,4709018E+002	8,9610481E+001	5,539236176433041E-004
3,1686090E+004	4,9956675E+000	5,3802557E-002	4,9959574E+000	-6,1704272E-001	10/07/2024 14:31:41.2439	6,9913417E-001	4,7316318E+000	9,3357361E+001	1,0827219E-002	1,000000000000000E+000	10	1,0243991E-002	2,0504561E-003	0	5,761902302228535E-003	2,0015022E-001	2,1555866E-003	2,0016183E-001	6,1704272E-001	1,0827217E+001	1,0053275E+003	1,0053858E+003	-8,9382957E+001	0,0000000E+000	0,0000000E+000	0,0000000E+000	8,9382957E+001	0,0000000E+000	0,0000000E+000	0,0000000E+000	-8,9382957E+001	0,0000000E+000	0,0000000E+000	0,0000000E+000	-6,1704272E-001	0,0000000E+000	0,0000000E+000	0,0000000E+000	6,1704272E-001	9,2851860E+001	8,9382957E+001	5,424382483598051E-004
2,5172580E+004	5,0283270E+000	8,1635438E-002	5,0289898E+000	-9,3012148E-001	10/07/2024 14:31:41.6659	6,9912213E-001	4,6865716E+000	7,7448616E+001	2,0408431E-002	1,000000000000000E+000	10	1,0195732E-002	2,0273917E-003	0	6,301749803834853E-003	1,9882090E-001	3,2278788E-003	1,9884710E-001	9,3012148E-001	2,0408451E+001	1,2570554E+003	1,2572211E+003	-8,9069878E+001	0,0000000E+000	0,0000000E+000	0,0000000E+000	8,9069878E+001	0,0000000E+000	0,0000000E+000	0,0000000E+000	-8,9069878E+001	0,0000000E+000	0,0000000E+000	0,0000000E+000	-9,3012148E-001	0,0000000E+000	0,0000000E+000	0,0000000E+000	9,3012148E-001	6,1594906E+001	8,9069878E+001	5,398475016063185E-004
1,9995176E+004	5,0482631E+000	1,1650024E-001	5,0496073E+000	-1,3219968E+000	10/07/2024 14:31:42.0879	6,9912291E-001	4,6455188E+000	6,8323174E+001	3,6366921E-002	1,000000000000000E+000	10	1,0196278E-002	2,0192219E-003	0	6,835898068873160E-003	1,9798249E-001	4,5688995E-003	1,9803520E-001	1,3219968E+000	3,6366970E+001	1,5758748E+003	1,5762943E+003	-8,8678001E+001	0,0000000E+000	0,0000000E+000	0,0000000E+000	8,8678001E+001	0,0000000E+000	0,0000000E+000	0,0000000E+000	-8,8678001E+001	0,0000000E+000	0,0000000E+000	0,0000000E+000	-1,3219968E+000	0,0000000E+000	0,0000000E+000	0,0000000E+000	1,3219968E+000	4,3332638E+001	8,8678001E+001	5,341482650383063E-004
1,5875519E+004	5,0684290E+000	1,4010581E-001	5,0703650E+000	-1,5834154E+000	10/07/2024 14:31:42.5099	6,9911730E-001	4,6062942E+000	7,1554344E+001	5,4634869E-002	1,000000000000000E+000	10	1,0171919E-002	2,0061512E-003	0	7,366935070581993E-003	1,9714916E-001	5,4497644E-003	1,9722447E-001	1,5834154E+000	5,4634766E+001	1,9764561E+003	1,9772111E+003	-8,8416588E+001	0,0000000E+000	0,0000000E+000	0,0000000E+000	8,8416588E+001	0,0000000E+000	0,0000000E+000	0,0000000E+000	-8,8416588E+001	0,0000000E+000	0,0000000E+000	0,0000000E+000	-1,5834154E+000	0,0000000E+000	0,0000000E+000	0,0000000E+000	1,5834154E+000	3,6175724E+001	8,8416588E+001	5,310370017088334E-004
1,2609485E+004	5,1033621E+000	1,7405786E-001	5,1063294E+000	-1,9534017E+000	10/07/2024 14:31:42.9319	6,9912291E-001	4,5700240E+000	7,2515213E+001	8,4255591E-002	1,000000000000000E+000	10	1,0087509E-002	1,9754912E-003	0	7,891035064517262E-003	1,9572158E-001	6,6753794E-003	1,9583538E-001	1,9534017E+000	8,4255501E+001	2,4703669E+003	2,4718035E+003	-8,8046600E+001	0,0000000E+000	0,0000000E+000	0,0000000E+000	8,8046600E+001	0,0000000E+000	0,0000000E+000	0,0000000E+000	-8,8046600E+001	0,0000000E+000	0,0000000E+000	0,0000000E+000	-1,9534017E+000	0,0000000E+000	0,0000000E+000	0,0000000E+000	1,9534017E+000	2,9319918E+001	8,8046600E+001	5,240999939352693E-004
1,0020785E+004	5,1320424E+000	2,1879661E-001	5,1367044E+000	-2,4412377E+000	10/07/2024 14:31:43.2189	6,9912618E-001	4,5453396E+000	7,2590164E+001	1,3170123E-001	1,000000000000000E+000	10	1,0692828E-002	2,0816515E-003	0	8,244431862743727E-003	1,9450067E-001	8,2922326E-003	1,9467735E-001	2,4412377E+000	1,3170126E+002	3,0891533E+003	3,0919595E+003	-8,7558762E+001	0,0000000E+000	0,0000000E+000	0,0000000E+000	8,7558762E+001	0,0000000E+000	0,0000000E+000	0,0000000E+000	-8,7558762E+001	0,0000000E+000	0,0000000E+000	0,0000000E+000	-2,4412377E+000	0,0000000E+000	0,0000000E+000	0,0000000E+000	2,4412377E+000	2,3455767E+001	8,7558762E+001	3,533967982264647E-004
7,9597607E+003	5,1616879E+000	2,6937297E-001	5,1687121E+000	-2,9873843E+000	10/07/2024 14:31:43.7001	6,9915247E-001	4,5057940E+000	7,4227715E+001	2,0160878E-001	1,000000000000000E+000	10	1,0060291E-002	1,9463825E-003	0	8,833622174093655E-003	1,9320887E-001	1,0082990E-002	1,9347179E-001	2,9873843E+000	2,0160855E+002	3,8632000E+003	3,8684570E+003	-8,7012619E+001	0,0000000E+000	0,0000000E+000	0,0000000E+000	8,7012619E+001	0,0000000E+000	0,0000000E+000	0,0000000E+000	-8,7012619E+001	0,0000000E+000	0,0000000E+000	0,0000000E+000	-2,9873843E+000	0,0000000E+000	0,0000000E+000	0,0000000E+000	2,9873843E+000	1,9161863E+001	8,7012619E+001	5,891903113499283E-004
6,3238188E+003	5,2036681E+000	3,3521169E-001	5,2144537E+000	-3,6858065E+000	10/07/2024 14:31:44.0927	6,9918048E-001	4,4746752E+000	7,5079529E+001	3,1027174E-001	1,000000000000000E+000	10	1,0334614E-002	1,9819168E-003	0	9,308763185400153E-003	1,9137797E-001	1,2328251E-002	1,9177464E-001	3,6858065E+000	3,1027173E+002	4,8165122E+003	4,8264956E+003	-8,6314194E+001	0,0000000E+000	0,0000000E+000	0,0000000E+000	8,6314194E+001	0,0000000E+000	0,0000000E+000	0,0000000E+000	-8,6314194E+001	0,0000000E+000	0,0000000E+000	0,0000000E+000	-3,6858065E+000	0,0000000E+000	0,0000000E+000	0,0000000E+000	3,6858065E+000	1,5523528E+001	8,6314194E+001	4,751410113064975E-004
5,0216069E+003	5,2463188E+000	4,0338129E-001	5,2618036E+000	-4,3967328E+000	10/07/2024 14:31:44.5591	6,9919604E-001	4,4435329E+000	7,8570885E+001	4,6176806E-001	1,000000000000000E+000	10	1,0497577E-002	1,9950531E-003	0	9,872244762121778E-003	1,8948962E-001	1,4569562E-002	1,9004890E-001	4,3967328E+000	4,6176840E+002	6,0056885E+003	6,0234146E+003	-8,5603264E+001	0,0000000E+000	0,0000000E+000	0,0000000E+000	8,5603264E+001	0,0000000E+000	0,0000000E+000	0,0000000E+000	-8,5603264E+001	0,0000000E+000	0,0000000E+000	0,0000000E+000	-4,3967328E+000	0,0000000E+000	0,0000000E+000	0,0000000E+000	4,3967328E+000	1,3005856E+001	8,5603264E+001	5,634815767216247E-004
3,9861731E+003	5,3071699E+000	4,8950499E-001	5,3296967E+000	-5,2697468E+000	10/07/2024 14:31:45.0253	6,9918370E-001	4,4072156E+000	8,1565575E+001	6,8804389E-001	1,000000000000000E+000	10	1,0610306E-002	1,9907898E-003	0	1,043457394890816E-002	1,8683490E-001	1,7232653E-002	1,8762794E-001	5,2697468E+000	6,8804358E+002	7,4597104E+003	7,4913740E+003	-8,4730255E+001	0,0000000E+000	0,0000000E+000	0,0000000E+000	8,4730255E+001	0,0000000E+000	0,0000000E+000	0,0000000E+000	-8,4730255E+001	0,0000000E+000	0,0000000E+000	0,0000000E+000	-5,2697468E+000	0,0000000E+000	0,0000000E+000	0,0000000E+000	5,2697468E+000	1,0841911E+001	8,4730255E+001	5,623291867863801E-004
3,1669595E+003	5,3609104E+000	5,9901273E-001	5,3942728E+000	-6,3756194E+000	10/07/2024 14:31:45.4903	6,9918507E-001	4,3733668E+000	8,3896065E+001	1,0345414E+000	1,000000000000000E+000	10	1,0672073E-002	1,9784081E-003	0	1,099383279705860E-002	1,8423526E-001	2,0585917E-002	1,8538180E-001	6,3756194E+000	1,0345411E+003	9,2587080E+003	9,3163271E+003	-8,3624382E+001	0,0000000E+000	0,0000000E+000	0,0000000E+000	8,3624382E+001	0,0000000E+000	0,0000000E+000	0,0000000E+000	-8,3624382E+001	0,0000000E+000	0,0000000E+000	0,0000000E+000	-6,3756194E+000	0,0000000E+000	0,0000000E+000	0,0000000E+000	6,3756194E+000	8,9495764E+000	8,3624382E+001	5,592588481504422E-004
2,5158047E+003	5,4324255E+000	7,2580808E-001	5,4806976E+000	-7,6100278E+000	10/07/2024 14:31:45.9541	6,9918078E-001	4,3420515E+000	8,7160843E+001	1,5285982E+000	1,000000000000000E+000	10	1,0708814E-002	1,9539145E-003	0	1,154486378481343E-002	1,8085149E-001	2,4162957E-002	1,8245852E-001	7,6100278E+000	1,5285988E+003	1,1441035E+004	1,1542699E+004	-8,2389969E+001	0,0000000E+000	0,0000000E+000	0,0000000E+000	8,2389969E+001	0,0000000E+000	0,0000000E+000	0,0000000E+000	-8,2389969E+001	0,0000000E+000	0,0000000E+000	0,0000000E+000	-7,6100278E+000	0,0000000E+000	0,0000000E+000	0,0000000E+000	7,6100278E+000	7,4846582E+000	8,2389969E+001	5,510309877548251E-004
1,9980818E+003	5,5248089E+000	8,7389129E-001	5,5934963E+000	-8,9883404E+000	10/07/2024 14:31:46.4203	6,9918281E-001	4,3105516E+000	9,1148483E+001	2,2248337E+000	1,000000000000000E+000	10	1,0734777E-002	1,9191534E-003	0	1,209599669511663E-002	1,7658368E-001	2,7931271E-002	1,7877905E-001	8,9883404E+000	2,2248342E+003	1,4065573E+004	1,4240443E+004	-8,1011658E+001	0,0000000E+000	0,0000000E+000	0,0000000E+000	8,1011658E+001	0,0000000E+000	0,0000000E+000	0,0000000E+000	-8,1011658E+001	0,0000000E+000	0,0000000E+000	0,0000000E+000	-8,9883404E+000	0,0000000E+000	0,0000000E+000	0,0000000E+000	8,9883404E+000	6,3220778E+000	8,1011658E+001	5,511329103032037E-004
1,5875399E+003	5,6239552E+000	1,0448102E+000	5,7201838E+000	-1,0524343E+001	10/07/2024 14:31:46.8838	6,9917214E-001	4,2779231E+000	9,5952888E+001	3,2012007E+000	1,000000000000000E+000	10	1,0727366E-002	1,8753533E-003	0	1,263962902379796E-002	1,7187864E-001	3,1931359E-002	1,7481956E-001	1,0524343E+001	3,2012017E+003	1,7231273E+004	1,7526109E+004	-7,9475655E+001	0,0000000E+000	0,0000000E+000	0,0000000E+000	7,9475655E+001	0,0000000E+000	0,0000000E+000	0,0000000E+000	-7,9475655E+001	0,0000000E+000	0,0000000E+000	0,0000000E+000	-1,0524343E+001	0,0000000E+000	0,0000000E+000	0,0000000E+000	1,0524343E+001	5,3827534E+000	7,9475655E+001	5,436323286813361E-004
1,2604036E+003	5,7568908E+000	1,2584431E+000	5,8928323E+000	-1,2330759E+001	10/07/2024 14:31:47.3491	6,9918257E-001	4,2534461E+000	1,0034065E+002	4,5761046E+000	1,000000000000000E+000	10	1,0739383E-002	1,8224485E-003	0	1,318163993427561E-002	1,6578294E-001	3,6239769E-002	1,6969769E-001	1,2330759E+001	4,5761035E+003	2,0933910E+004	2,1428236E+004	-7,7669243E+001	0,0000000E+000	0,0000000E+000	0,0000000E+000	7,7669243E+001	0,0000000E+000	0,0000000E+000	0,0000000E+000	-7,7669243E+001	0,0000000E+000	0,0000000E+000	0,0000000E+000	-1,2330759E+001	0,0000000E+000	0,0000000E+000	0,0000000E+000	1,2330759E+001	4,5746136E+000	7,7669243E+001	5,420109104776454E-004
1,0016024E+003	5,9160008E+000	1,5046580E+000	6,1043477E+000	-1,4269878E+001	10/07/2024 14:31:47.8138	6,9917876E-001	4,2208023E+000	1,0560561E+002	6,4162908E+000	1,000000000000000E+000	10	1,0728045E-002	1,7574434E-003	0	1,371920404726319E-002	1,5876316E-001	4,0379345E-002	1,6381767E-001	1,4269878E+001	6,4162920E+003	2,5227514E+004	2,6030680E+004	-7,5730118E+001	0,0000000E+000	0,0000000E+000	0,0000000E+000	7,5730118E+001	0,0000000E+000	0,0000000E+000	0,0000000E+000	-7,5730118E+001	0,0000000E+000	0,0000000E+000	0,0000000E+000	-1,4269878E+001	0,0000000E+000	0,0000000E+000	0,0000000E+000	1,4269878E+001	3,9317911E+000	7,5730118E+001	5,375641129875749E-004
7,9525409E+002	6,1385012E+000	1,7809885E+000	6,3916445E+000	-1,6179245E+001	10/07/2024 14:31:48.2791	6,9918132E-001	4,1946030E+000	1,1237070E+002	8,7246914E+000	1,000000000000000E+000	10	1,0722646E-002	1,6776036E-003	0	1,425141818038234E-002	1,5025784E-001	4,3594923E-002	1,5645427E-001	1,6179245E+001	8,7246924E+003	3,0071242E+004	3,1311338E+004	-7,3820755E+001	0,0000000E+000	0,0000000E+000	0,0000000E+000	7,3820755E+001	0,0000000E+000	0,0000000E+000	0,0000000E+000	-7,3820755E+001	0,0000000E+000	0,0000000E+000	0,0000000E+000	-1,6179245E+001	0,0000000E+000	0,0000000E+000	0,0000000E+000	1,6179245E+001	3,4466822E+000	7,3820755E+001	5,322141331191594E-004
6,3181964E+002	6,4050679E+000	2,0984681E+000	6,7400641E+000	-1,8140150E+001	10/07/2024 14:31:48.7436	6,9917870E-001	4,1717024E+000	1,2003963E+002	1,1635936E+001	1,000000000000000E+000	10	1,0707235E-002	1,5885954E-003	0	1,478256662380012E-002	1,4099240E-001	4,6192799E-002	1,4836654E-001	1,8140150E+001	1,1635937E+004	3,5515891E+004	3,7373434E+004	-7,1859848E+001	0,0000000E+000	0,0000000E+000	0,0000000E+000	7,1859848E+001	0,0000000E+000	0,0000000E+000	0,0000000E+000	-7,1859848E+001	0,0000000E+000	0,0000000E+000	0,0000000E+000	-1,8140150E+001	0,0000000E+000	0,0000000E+000	0,0000000E+000	1,8140150E+001	3,0522590E+000	7,1859848E+001	5,311484434177786E-004
5,0208865E+002	6,7613530E+000	2,4401329E+000	7,1881948E+000	-1,9844217E+001	10/07/2024 14:31:49.2083	6,9917130E-001	4,1416879E+000	1,2990512E+002	1,4969715E+001	1,000000000000000E+000	10	1,0691349E-002	1,4873483E-003	0	1,530957558965755E-002	1,3085610E-001	4,7225200E-002	1,3911699E-001	1,9844217E+001	1,4969714E+004	4,1479516E+004	4,4098102E+004	-7,0155785E+001	0,0000000E+000	0,0000000E+000	0,0000000E+000	7,0155785E+001	0,0000000E+000	0,0000000E+000	0,0000000E+000	-7,0155785E+001	0,0000000E+000	0,0000000E+000	0,0000000E+000	-1,9844217E+001	0,0000000E+000	0,0000000E+000	0,0000000E+000	1,9844217E+001	2,7708955E+000	7,0155785E+001	5,270089658574312E-004
3,9859698E+002	7,2315521E+000	2,7841277E+000	7,7489815E+000	-2,1056568E+001	10/07/2024 14:31:49.6739	6,9917434E-001	4,1135049E+000	1,4341579E+002	1,8513393E+001	1,000000000000000E+000	10	1,0689679E-002	1,3794947E-003	0	1,583365701225152E-002	1,2043210E-001	4,6366028E-002	1,2904921E-001	2,1056568E+001	1,8513391E+004	4,8087082E+004	5,1527789E+004	-6,8943436E+001	0,0000000E+000	0,0000000E+000	0,0000000E+000	6,8943436E+001	0,0000000E+000	0,0000000E+000	0,0000000E+000	-6,8943436E+001	0,0000000E+000	0,0000000E+000	0,0000000E+000	-2,1056568E+001	0,0000000E+000	0,0000000E+000	0,0000000E+000	2,1056568E+001	2,5974212E+000	6,8943436E+001	5,240814225939625E-004
3,1672299E+002	7,7810664E+000	3,0908315E+000	8,3724689E+000	-2,1664196E+001	10/07/2024 14:31:50.1380	6,9918543E-001	4,0933113E+000	1,6257927E+002	2,2156889E+001	1,000000000000000E+000	10	1,0671680E-002	1,2746156E-003	0	1,635323980961466E-002	1,1100232E-001	4,4092856E-002	1,1943908E-001	2,1664196E+001	2,2156891E+004	5,5779234E+004	6,0018754E+004	-6,8335800E+001	0,0000000E+000	0,0000000E+000	0,0000000E+000	6,8335800E+001	0,0000000E+000	0,0000000E+000	0,0000000E+000	-6,8335800E+001	0,0000000E+000	0,0000000E+000	0,0000000E+000	-2,1664196E+001	0,0000000E+000	0,0000000E+000	0,0000000E+000	2,1664196E+001	2,5174670E+000	6,8335800E+001	5,195827973631419E-004
2,5136746E+002	8,4462147E+000	3,3510940E+000	9,0867138E+000	-2,1641047E+001	10/07/2024 14:31:50.6011	6,9918495E-001	4,0696406E+000	1,8894025E+002	2,5697092E+001	1,000000000000000E+000	10	1,0666626E-002	1,1738705E-003	0	1,686909583580701E-002	1,0229359E-001	4,0585689E-002	1,1005079E-001	2,1641047E+001	2,5697092E+004	6,4767852E+004	6,9679375E+004	-6,8358955E+001	0,0000000E+000	0,0000000E+000	0,0000000E+000	6,8358955E+001	0,0000000E+000	0,0000000E+000	0,0000000E+000	-6,8358955E+001	0,0000000E+000	0,0000000E+000	0,0000000E+000	-2,1641047E+001	0,0000000E+000	0,0000000E+000	0,0000000E+000	2,1641047E+001	2,5204351E+000	6,8358955E+001	5,158560261923489E-004
1,9980818E+002	9,1794624E+000	3,4915078E+000	9,8210564E+000	-2,0824854E+001	10/07/2024 14:31:51.0673	6,9917822E-001	4,0438089E+000	2,2813600E+002	2,8833904E+001	1,000000000000000E+000	10	1,0658810E-002	1,0853017E-003	0	1,738362913468180E-002	9,5170163E-002	3,6199003E-002	1,0182204E-001	2,0824854E+001	2,8833904E+004	7,5806719E+004	8,1105195E+004	-6,9175148E+001	0,0000000E+000	0,0000000E+000	0,0000000E+000	6,9175148E+001	0,0000000E+000	0,0000000E+000	0,0000000E+000	-6,9175148E+001	0,0000000E+000	0,0000000E+000	0,0000000E+000	-2,0824854E+001	0,0000000E+000	0,0000000E+000	0,0000000E+000	2,0824854E+001	2,6290827E+000	6,9175148E+001	5,145332988747940E-004
1,5862943E+002	9,9662533E+000	3,5253248E+000	1,0571383E+001	-1,9480021E+001	10/07/2024 14:31:51.5349	6,9919556E-001	4,0167232E+000	2,8460153E+002	3,1649872E+001	1,000000000000000E+000	10	1,0660787E-002	1,0084573E-003	0	1,789682064449115E-002	8,9180186E-002	3,1545367E-002	9,4595008E-002	1,9480021E+001	3,1649867E+004	8,9475625E+004	9,4908383E+004	-7,0519981E+001	0,0000000E+000	0,0000000E+000	0,0000000E+000	7,0519981E+001	0,0000000E+000	0,0000000E+000	0,0000000E+000	-7,0519981E+001	0,0000000E+000	0,0000000E+000	0,0000000E+000	-1,9480021E+001	0,0000000E+000	0,0000000E+000	0,0000000E+000	1,9480021E+001	2,8270454E+000	7,0519981E+001	5,131915098093437E-004
1,2600809E+002	1,0718274E+001	3,4057000E+000	1,1246342E+001	-1,7627501E+001	10/07/2024 14:31:51.9975	6,9918895E-001	3,9947801E+000	3,7086453E+002	3,4009911E+001	1,000000000000000E+000	10	1,0658268E-002	9,4770978E-004	0	1,840272077160980E-002	8,4742710E-002	2,6926745E-002	8,8917807E-002	1,7627501E+001	3,4009918E+004	1,0703455E+005	1,1230793E+005	-7,2372498E+001	0,0000000E+000	0,0000000E+000	0,0000000E+000	7,2372498E+001	0,0000000E+000	0,0000000E+000	0,0000000E+000	-7,2372498E+001	0,0000000E+000	0,0000000E+000	0,0000000E+000	-1,7627501E+001	0,0000000E+000	0,0000000E+000	0,0000000E+000	1,7627501E+001	3,1471574E+000	7,2372498E+001	5,059001271186594E-004
1,0016024E+002	1,1403710E+001	3,1987979E+000	1,1843856E+001	-1,5669074E+001	10/07/2024 14:31:52.4628	6,9918084E-001	3,9709074E+000	4,9675009E+002	3,6234756E+001	1,000000000000000E+000	10	1,0655768E-002	8,9968741E-004	0	1,890777003311583E-002	8,1294276E-002	2,2803450E-002	8,4431961E-002	1,5669074E+001	3,6234758E+004	1,2917686E+005	1,3416266E+005	-7,4330925E+001	0,0000000E+000	0,0000000E+000	0,0000000E+000	7,4330925E+001	0,0000000E+000	0,0000000E+000	0,0000000E+000	-7,4330925E+001	0,0000000E+000	0,0000000E+000	0,0000000E+000	-1,5669074E+001	0,0000000E+000	0,0000000E+000	0,0000000E+000	1,5669074E+001	3,5649986E+000	7,4330925E+001	5,050492615060256E-004
7,9516548E+001	1,1984332E+001	2,9179335E+000	1,2334446E+001	-1,3684061E+001	10/07/2024 14:31:52.9313	6,9917548E-001	3,9575596E+000	6,8594177E+002	3,8388283E+001	1,000000000000000E+000	10	1,0642591E-002	8,6283492E-004	0	1,941433547771101E-002	7,8772485E-002	1,9179448E-002	8,1073768E-002	1,3684061E+001	3,8388281E+004	1,5766567E+005	1,6227177E+005	-7,6315941E+001	0,0000000E+000	0,0000000E+000	0,0000000E+000	7,6315941E+001	0,0000000E+000	0,0000000E+000	0,0000000E+000	-7,6315941E+001	0,0000000E+000	0,0000000E+000	0,0000000E+000	-1,3684061E+001	0,0000000E+000	0,0000000E+000	0,0000000E+000	1,3684061E+001	4,1071301E+000	7,6315941E+001	5,065654445951806E-004
6,3160763E+001	1,2484073E+001	2,6044960E+000	1,2752861E+001	-1,1784332E+001	10/07/2024 14:31:53.4080	6,9917840E-001	3,9394674E+000	9,6749579E+002	4,0353500E+001	1,000000000000000E+000	10	1,0652833E-002	8,3532883E-004	0	1,992884443029389E-002	7,6761074E-002	1,6014317E-002	7,8413777E-002	1,1784332E+001	4,0353500E+004	1,9342553E+005	1,9759008E+005	-7,8215668E+001	0,0000000E+000	0,0000000E+000	0,0000000E+000	7,8215668E+001	0,0000000E+000	0,0000000E+000	0,0000000E+000	-7,8215668E+001	0,0000000E+000	0,0000000E+000	0,0000000E+000	-1,1784332E+001	0,0000000E+000	0,0000000E+000	0,0000000E+000	1,1784332E+001	4,7932777E+000	7,8215668E+001	5,145089525828775E-004
5,0144421E+001	1,2872492E+001	2,2502167E+000	1,3067690E+001	-9,9155807E+000	10/07/2024 14:31:53.8725	6,9918430E-001	3,9186304E+000	1,4105002E+003	4,1823872E+001	1,000000000000000E+000	10	1,0634122E-002	8,1377220E-004	0	2,042654940004129E-002	7,5381540E-002	1,3177309E-002	7,6524623E-002	9,9155807E+000	4,1823871E+004	2,3925581E+005	2,4288388E+005	-8,0084419E+001	0,0000000E+000	0,0000000E+000	0,0000000E+000	8,0084419E+001	0,0000000E+000	0,0000000E+000	0,0000000E+000	-8,0084419E+001	0,0000000E+000	0,0000000E+000	0,0000000E+000	-9,9155807E+000	0,0000000E+000	0,0000000E+000	0,0000000E+000	9,9155807E+000	5,7205563E+000	8,0084419E+001	4,977049697474055E-004
3,9859695E+001	1,3221087E+001	1,9803091E+000	1,3368573E+001	-8,5186701E+000	10/07/2024 14:31:54.3398	6,9919211E-001	3,8960376E+000	2,0162909E+003	4,4243454E+001	1,000000000000000E+000	10	1,0643091E-002	7,9612766E-004	0	2,092527109248600E-002	7,3977053E-002	1,1080590E-002	7,4802302E-002	8,5186701E+000	4,4243449E+004	2,9538144E+005	2,9867653E+005	-8,1481331E+001	0,0000000E+000	0,0000000E+000	0,0000000E+000	8,1481331E+001	0,0000000E+000	0,0000000E+000	0,0000000E+000	-8,1481331E+001	0,0000000E+000	0,0000000E+000	0,0000000E+000	-8,5186701E+000	0,0000000E+000	0,0000000E+000	0,0000000E+000	8,5186701E+000	6,6762743E+000	8,1481331E+001	4,987216924447063E-004
3,1672298E+001	1,3527988E+001	1,6920588E+000	1,3633398E+001	-7,1294379E+000	10/07/2024 14:31:54.7836	6,9918382E-001	3,8690584E+000	2,9697859E+003	4,5745438E+001	1,000000000000000E+000	10	1,0654661E-002	7,8151177E-004	0	2,139520528200556E-002	7,2782166E-002	9,1034751E-003	7,3349282E-002	7,1294379E+000	4,5745453E+004	3,6573419E+005	3,6858397E+005	-8,2870560E+001	0,0000000E+000	0,0000000E+000	0,0000000E+000	8,2870560E+001	0,0000000E+000	0,0000000E+000	0,0000000E+000	-8,2870560E+001	0,0000000E+000	0,0000000E+000	0,0000000E+000	-7,1294379E+000	0,0000000E+000	0,0000000E+000	0,0000000E+000	7,1294379E+000	7,9949870E+000	8,2870560E+001	4,699341895195580E-004
2,5136747E+001	1,3759496E+001	1,4583106E+000	1,3836560E+001	-6,0499511E+000	10/07/2024 14:31:55.2471	6,9917691E-001	3,8458686E+000	4,3417119E+003	4,8228615E+001	1,000000000000000E+000	10	1,0643011E-002	7,6919486E-004	0	2,188472053681935E-002	7,1869776E-002	7,6171723E-003	7,2272301E-002	6,0499511E+000	4,8228605E+004	4,5504809E+005	4,5759672E+005	-8,3950050E+001	0,0000000E+000	0,0000000E+000	0,0000000E+000	8,3950050E+001	0,0000000E+000	0,0000000E+000	0,0000000E+000	-8,3950050E+001	0,0000000E+000	0,0000000E+000	0,0000000E+000	-6,0499511E+000	0,0000000E+000	0,0000000E+000	0,0000000E+000	6,0499511E+000	9,4352303E+000	8,3950050E+001	4,895152548137910E-004
1,9980818E+001	1,3955371E+001	1,2393923E+000	1,4010299E+001	-5,0751872E+000	10/07/2024 14:31:55.7133	6,9918293E-001	3,8254757E+000	6,4268486E+003	5,0294544E+001	1,000000000000000E+000	10	1,0652055E-002	7,6030177E-004	0	2,237049512138712E-002	7,1096234E-002	6,3141361E-003	7,1376063E-002	5,0751872E+000	5,0294547E+004	5,6630900E+005	5,6853800E+005	-8,4924812E+001	0,0000000E+000	0,0000000E+000	0,0000000E+000	8,4924812E+001	0,0000000E+000	0,0000000E+000	0,0000000E+000	-8,4924812E+001	0,0000000E+000	0,0000000E+000	0,0000000E+000	-5,0751872E+000	0,0000000E+000	0,0000000E+000	0,0000000E+000	5,0751872E+000	1,1259850E+001	8,4924812E+001	4,857745845677705E-004
1,5857577E+001	1,4183775E+001	1,0604669E+000	1,4223363E+001	-4,2758322E+000	10/07/2024 14:31:56.3973	6,9917369E-001	3,7693472E+000	9,4642500E+003	5,2610912E+001	1,000000000000000E+000	11	1,0654332E-002	7,4907264E-004	0	2,305341485680725E-002	7,0111170E-002	5,2419459E-003	7,0306860E-002	4,2758322E+000	5,2610918E+004	7,0367238E+005	7,0563638E+005	-8,5724167E+001	0,0000000E+000	0,0000000E+000	0,0000000E+000	8,5724167E+001	0,0000000E+000	0,0000000E+000	0,0000000E+000	-8,5724167E+001	0,0000000E+000	0,0000000E+000	0,0000000E+000	-4,2758322E+000	0,0000000E+000	0,0000000E+000	0,0000000E+000	4,2758322E+000	1,3375029E+001	8,5724167E+001	6,829197354201316E-004
1,2600809E+001	1,4299130E+001	9,1289169E-001	1,4328241E+001	-3,6529460E+000	10/07/2024 14:31:56.9422	6,9918501E-001	3,7588804E+000	1,3835742E+004	5,6163631E+001	1,000000000000000E+000	11	1,0648183E-002	7,4316049E-004	0	2,361640784014580E-002	6,9650434E-002	4,4466550E-003	6,9792233E-002	3,6529460E+000	5,6163637E+004	8,7972219E+005	8,8151319E+005	-8,6347054E+001	0,0000000E+000	0,0000000E+000	0,0000000E+000	8,6347054E+001	0,0000000E+000	0,0000000E+000	0,0000000E+000	-8,6347054E+001	0,0000000E+000	0,0000000E+000	0,0000000E+000	-3,6529460E+000	0,0000000E+000	0,0000000E+000	0,0000000E+000	3,6529460E+000	1,5663556E+001	8,6347054E+001	5,629929833385512E-004
1,0003201E+001	1,4380022E+001	7,5299138E-001	1,4399723E+001	-2,9974823E+000	10/07/2024 14:31:57.4061	6,9917721E-001	3,7393851E+000	2,1129592E+004	5,7778046E+001	1,000000000000000E+000	11	1,0638188E-002	7,3877722E-004	0	2,409417855578832E-002	6,9350772E-002	3,6314640E-003	6,9445781E-002	2,9974823E+000	5,7778043E+004	1,1033984E+006	1,1049101E+006	-8,7002518E+001	0,0000000E+000	0,0000000E+000	0,0000000E+000	8,7002518E+001	0,0000000E+000	0,0000000E+000	0,0000000E+000	-8,7002518E+001	0,0000000E+000	0,0000000E+000	0,0000000E+000	-2,9974823E+000	0,0000000E+000	0,0000000E+000	0,0000000E+000	2,9974823E+000	1,9097193E+001	8,7002518E+001	4,777707156425129E-004
7,9557004E+000	1,4492785E+001	6,5939927E-001	1,4507778E+001	-2,6050725E+000	10/07/2024 14:31:57.9786	6,9917542E-001	3,7264299E+000	3,0338439E+004	6,2674137E+001	1,000000000000000E+000	11	1,0632905E-002	7,3291064E-004	0	2,467092038753184E-002	6,8857305E-002	3,1329007E-003	6,8928540E-002	2,6050725E+000	6,2674121E+004	1,3775005E+006	1,3789255E+006	-8,7394928E+001	0,0000000E+000	0,0000000E+000	0,0000000E+000	8,7394928E+001	0,0000000E+000	0,0000000E+000	0,0000000E+000	-8,7394928E+001	0,0000000E+000	0,0000000E+000	0,0000000E+000	-2,6050725E+000	0,0000000E+000	0,0000000E+000	0,0000000E+000	2,6050725E+000	2,1978771E+001	8,7394928E+001	5,767418317435234E-004
6,3105812E+000	1,4589722E+001	5,6050998E-001	1,4600485E+001	-2,2001154E+000	10/07/2024 14:31:58.3576	6,9916427E-001	3,7100561E+000	4,4995328E+004	6,6313133E+001	1,000000000000000E+000	11	1,0653184E-002	7,2964589E-004	0	2,506343715248536E-002	6,8440393E-002	2,6293527E-003	6,8490878E-002	2,2001154E+000	6,6313242E+004	1,7260890E+006	1,7273624E+006	-8,7799881E+001	0,0000000E+000	0,0000000E+000	0,0000000E+000	8,7799881E+001	0,0000000E+000	0,0000000E+000	0,0000000E+000	-8,7799881E+001	0,0000000E+000	0,0000000E+000	0,0000000E+000	-2,2001154E+000	0,0000000E+000	0,0000000E+000	0,0000000E+000	2,2001154E+000	2,6029369E+001	8,7799881E+001	3,925167649535231E-004
5,0144420E+000	1,4774890E+001	5,1084155E-001	1,4783718E+001	-1,9802119E+000	10/07/2024 14:31:58.8226	6,9918323E-001	3,6905894E+000	6,2131426E+004	7,4185051E+001	1,000000000000000E+000	11	1,0650631E-002	7,2042982E-004	0	2,553026174947363E-002	6,7601584E-002	2,3373237E-003	6,7641981E-002	1,9802119E+000	7,4184961E+004	2,1456280E+006	2,1469100E+006	-8,8019791E+001	0,0000000E+000	0,0000000E+000	0,0000000E+000	8,8019791E+001	0,0000000E+000	0,0000000E+000	0,0000000E+000	-8,8019791E+001	0,0000000E+000	0,0000000E+000	0,0000000E+000	-1,9802119E+000	0,0000000E+000	0,0000000E+000	0,0000000E+000	1,9802119E+000	2,8922647E+001	8,8019791E+001	4,668245969882724E-004
3,9859698E+000	1,4733299E+001	4,4151503E-001	1,4739913E+001	-1,7164778E+000	10/07/2024 14:31:59.3940	6,9918478E-001	3,6831424E+000	9,0435859E+004	8,1141266E+001	1,000000000000000E+000	11	1,0648693E-002	7,2243932E-004	0	2,609668991244367E-002	6,7812562E-002	2,0321496E-003	6,7843005E-002	1,7164778E+000	8,1141203E+004	2,7076735E+006	2,7088890E+006	-8,8283524E+001	0,0000000E+000	0,0000000E+000	0,0000000E+000	8,8283524E+001	0,0000000E+000	0,0000000E+000	0,0000000E+000	-8,8283524E+001	0,0000000E+000	0,0000000E+000	0,0000000E+000	-1,7164778E+000	0,0000000E+000	0,0000000E+000	0,0000000E+000	1,7164778E+000	3,3369869E+001	8,8283524E+001	5,664281629700341E-004
3,1655185E+000	1,4777395E+001	3,2488173E-001	1,4780966E+001	-1,2594476E+000	10/07/2024 14:32:00.1001	6,9917989E-001	3,6773961E+000	1,5475689E+005	7,4764412E+001	1,000000000000000E+000	11	1,0651262E-002	7,2060659E-004	0	2,681679633491869E-002	6,7638233E-002	1,4870298E-003	6,7654580E-002	1,2594476E+000	7,4764273E+004	3,4006938E+006	3,4015155E+006	-8,8740555E+001	0,0000000E+000	0,0000000E+000	0,0000000E+000	8,8740555E+001	0,0000000E+000	0,0000000E+000	0,0000000E+000	-8,8740555E+001	0,0000000E+000	0,0000000E+000	0,0000000E+000	-1,2594476E+000	0,0000000E+000	0,0000000E+000	0,0000000E+000	1,2594476E+000	4,5485462E+001	8,8740555E+001	7,201064224750219E-004
2,5136747E+000	1,4971011E+001	2,3233537E-001	1,4972814E+001	-8,8910282E-001	10/07/2024 14:32:00.9761	6,9918960E-001	3,6386054E+000	2,7251831E+005	6,5617477E+001	1,000000000000000E+000	11	1,0650186E-002	7,1130157E-004	0	2,770911911688497E-002	6,6779673E-002	1,0363549E-003	6,6787712E-002	8,8910282E-001	6,5617211E+004	4,2281985E+006	4,2287075E+006	-8,9110901E+001	0,0000000E+000	0,0000000E+000	0,0000000E+000	8,9110901E+001	0,0000000E+000	0,0000000E+000	0,0000000E+000	-8,9110901E+001	0,0000000E+000	0,0000000E+000	0,0000000E+000	-8,8910282E-001	0,0000000E+000	0,0000000E+000	0,0000000E+000	8,8910282E-001	6,4437073E+001	8,9110901E+001	8,923227819662774E-004
1,9970603E+000	1,5048873E+001	3,1455305E-001	1,5052160E+001	-1,1974277E+000	10/07/2024 14:32:02.0681	6,9918913E-001	3,6231184E+000	2,5335827E+005	1,1064332E+002	1,000000000000000E+000	11	1,0651187E-002	7,0761848E-004	0	2,879672036075204E-002	6,6421144E-002	1,3883413E-003	6,6435650E-002	1,1974277E+000	1,1064314E+005	5,2934070E+006	5,2945630E+006	-8,8802574E+001	0,0000000E+000	0,0000000E+000	0,0000000E+000	8,8802574E+001	0,0000000E+000	0,0000000E+000	0,0000000E+000	-8,8802574E+001	0,0000000E+000	0,0000000E+000	0,0000000E+000	-1,1974277E+000	0,0000000E+000	0,0000000E+000	0,0000000E+000	1,1974277E+000	4,7842083E+001	8,8802574E+001	1,087601243867073E-003
1,5846856E+000	1,5085915E+001	4,2804599E-001	1,5091986E+001	-1,6252677E+000	10/07/2024 14:32:03.4334	6,9919693E-001	3,5829995E+000	2,3463166E+005	1,8874467E+002	1,000000000000000E+000	11	1,0646752E-002	7,0545735E-004	0	3,013579536369189E-002	6,6233672E-002	1,8793066E-003	6,6260330E-002	1,6252677E+000	1,8874459E+005	6,6520565E+006	6,6547335E+006	-8,8374733E+001	0,0000000E+000	0,0000000E+000	0,0000000E+000	8,8374733E+001	0,0000000E+000	0,0000000E+000	0,0000000E+000	-8,8374733E+001	0,0000000E+000	0,0000000E+000	0,0000000E+000	-1,6252677E+000	0,0000000E+000	0,0000000E+000	0,0000000E+000	1,6252677E+000	3,5243679E+001	8,8374733E+001	1,339075002939852E-003
1,2596742E+000	1,5124469E+001	3,2075804E-001	1,5127870E+001	-1,2149404E+000	10/07/2024 14:32:05.1404	6,9919705E-001	3,5458188E+000	3,9389853E+005	1,7708588E+002	1,000000000000000E+000	11	1,0654456E-002	7,0429320E-004	0	3,179728045726883E-002	6,6088296E-002	1,4015933E-003	6,6103160E-002	1,2149404E+000	1,7708627E+005	8,3500010E+006	8,3518785E+006	-8,8785057E+001	0,0000000E+000	0,0000000E+000	0,0000000E+000	8,8785057E+001	0,0000000E+000	0,0000000E+000	0,0000000E+000	-8,8785057E+001	0,0000000E+000	0,0000000E+000	0,0000000E+000	-1,2149404E+000	0,0000000E+000	0,0000000E+000	0,0000000E+000	1,2149404E+000	4,7152267E+001	8,8785057E+001	1,661485093576939E-003
1,0000639E+000	1,5266359E+001	1,3252421E-001	1,5266934E+001	-4,9736071E-001	10/07/2024 14:32:07.2785	6,9919336E-001	3,5201581E+000	1,2008733E+006	9,0486526E+001	1,000000000000000E+000	11	1,0646561E-002	6,9736078E-004	0	3,388428115697857E-002	6,5498568E-002	5,6857994E-004	6,5501034E-002	4,9736071E-001	9,0486438E+004	1,0423754E+007	1,0424147E+007	-8,9502640E+001	0,0000000E+000	0,0000000E+000	0,0000000E+000	8,9502640E+001	0,0000000E+000	0,0000000E+000	0,0000000E+000	-8,9502640E+001	0,0000000E+000	0,0000000E+000	0,0000000E+000	-4,9736071E-001	0,0000000E+000	0,0000000E+000	0,0000000E+000	4,9736071E-001	1,1519676E+002	8,9502640E+001	2,087000699709740E-003
7,9443753E-001	1,5406521E+001	-2,4982358E-003	1,5406521E+001	9,2907650E-003	10/07/2024 14:32:09.9616	6,9919187E-001	3,4747725E+000	-8,0191248E+007	-2,1085536E+000	1,000000000000000E+000	11	1,0643576E-002	6,9084880E-004	0	3,650249878748579E-002	6,4907581E-002	-1,0525052E-005	6,4907581E-002	-9,2907650E-003	-2,1089707E+003	1,3003367E+007	1,3003367E+007	-9,0009293E+001	0,0000000E+000	0,0000000E+000	0,0000000E+000	9,0009293E+001	0,0000000E+000	0,0000000E+000	0,0000000E+000	-9,0009293E+001	0,0000000E+000	0,0000000E+000	0,0000000E+000	9,2907650E-003	0,0000000E+000	0,0000000E+000	0,0000000E+000	-9,2907650E-003	6,1669604E+003	8,9990707E+001	2,618217630507215E-003
6,3126212E-001	1,5928168E+001	-1,0927513E-002	1,5928172E+001	3,9307740E-002	10/07/2024 14:32:13.3272	6,9918966E-001	3,4016514E+000	-2,3072202E+007	-1,0859251E+001	1,000000000000000E+000	11	1,0643867E-002	6,6824158E-004	0	3,972924874079031E-002	6,2781826E-002	-4,3071446E-005	6,2781841E-002	-3,9307740E-002	-1,0858947E+004	1,5828667E+007	1,5828671E+007	-9,0039307E+001	0,0000000E+000	0,0000000E+000	0,0000000E+000	9,0039307E+001	0,0000000E+000	0,0000000E+000	0,0000000E+000	-9,0039307E+001	0,0000000E+000	0,0000000E+000	0,0000000E+000	3,9307740E-002	0,0000000E+000	0,0000000E+000	0,0000000E+000	-3,9307740E-002	1,4576206E+003	8,9960693E+001	3,226749953304520E-003
5,0118679E-001	1,6541603E+001	8,6126044E-002	1,6541828E+001	-2,9831535E-001	10/07/2024 14:32:17.5578	6,9919026E-001	3,3012133E+000	3,6871093E+006	9,9951195E+001	1,000000000000000E+000	11	1,0643552E-002	6,4343261E-004	0	4,365471135004961E-002	6,0451992E-002	3,1475129E-004	6,0452811E-002	2,9831535E-001	9,9951742E+004	1,9196902E+007	1,9197162E+007	-8,9701683E+001	0,0000000E+000	0,0000000E+000	0,0000000E+000	8,9701683E+001	0,0000000E+000	0,0000000E+000	0,0000000E+000	-8,9701683E+001	0,0000000E+000	0,0000000E+000	0,0000000E+000	-2,9831535E-001	0,0000000E+000	0,0000000E+000	0,0000000E+000	2,9831535E-001	1,9206273E+002	8,9701683E+001	3,925462609259307E-003
3,9774463E-001	1,6926580E+001	3,8351125E-001	1,6930925E+001	-1,2979476E+000	10/07/2024 14:32:22.8770	6,9919163E-001	3,2110319E+000	1,0433684E+006	5,3534344E+002	1,000000000000000E+000	11	1,0647168E-002	6,2885921E-004	0	4,840787271382784E-002	5,9048362E-002	1,3378785E-003	5,9063517E-002	1,2979476E+000	5,3534475E+005	2,3627820E+007	2,3633884E+007	-8,8702049E+001	0,0000000E+000	0,0000000E+000	0,0000000E+000	8,8702049E+001	0,0000000E+000	0,0000000E+000	0,0000000E+000	-8,8702049E+001	0,0000000E+000	0,0000000E+000	0,0000000E+000	-1,2979476E+000	0,0000000E+000	0,0000000E+000	0,0000000E+000	1,2979476E+000	4,4135811E+001	8,8702049E+001	4,753161363778229E-003
3,1619310E-001	1,7529074E+001	3,4916300E-001	1,7532551E+001	-1,1411283E+000	10/07/2024 14:32:29.5573	6,9919688E-001	3,1606591E+000	1,4415826E+006	5,7174945E+002	1,000000000000000E+000	11	1,0643608E-002	6,0707697E-004	0	5,421287118467730E-002	5,7025451E-002	1,1358946E-003	5,7036765E-002	1,1411283E+000	5,7174956E+005	2,8703608E+007	2,8709302E+007	-8,8858871E+001	0,0000000E+000	0,0000000E+000	0,0000000E+000	8,8858871E+001	0,0000000E+000	0,0000000E+000	0,0000000E+000	-8,8858871E+001	0,0000000E+000	0,0000000E+000	0,0000000E+000	-1,1411283E+000	0,0000000E+000	0,0000000E+000	0,0000000E+000	1,1411283E+000	5,0203125E+001	8,8858871E+001	5,804998470849455E-003
2,5117347E-001	1,7915178E+001	3,0729121E-001	1,7917814E+001	-9,8267299E-001	10/07/2024 14:32:37.9599	6,9919866E-001	3,0548217E+000	2,0620360E+006	6,0649390E+002	1,000000000000000E+000	11	1,0643741E-002	5,9403124E-004	0	6,131934207600334E-002	5,5802170E-002	9,5715013E-004	5,5810377E-002	9,8267299E-001	6,0649431E+005	3,5358796E+007	3,5363996E+007	-8,9017326E+001	0,0000000E+000	0,0000000E+000	0,0000000E+000	8,9017326E+001	0,0000000E+000	0,0000000E+000	0,0000000E+000	-8,9017326E+001	0,0000000E+000	0,0000000E+000	0,0000000E+000	-9,8267299E-001	0,0000000E+000	0,0000000E+000	0,0000000E+000	9,8267299E-001	5,8300327E+001	8,9017326E+001	7,106470891326044E-003
1,9933917E-001	1,6922689E+001	7,1959698E-001	1,6937983E+001	-2,4348993E+000	10/07/2024 14:32:48.5367	6,9920027E-001	3,0148432E+000	1,1095278E+006	2,0025966E+003	1,000000000000000E+000	11	1,0644407E-002	6,2843418E-004	0	7,021459358811213E-002	5,8985602E-002	2,5082219E-003	5,9038907E-002	2,4348993E+000	2,0025958E+006	4,7094860E+007	4,7137420E+007	-8,7565102E+001	0,0000000E+000	0,0000000E+000	0,0000000E+000	8,7565102E+001	0,0000000E+000	0,0000000E+000	0,0000000E+000	-8,7565102E+001	0,0000000E+000	0,0000000E+000	0,0000000E+000	-2,4348993E+000	0,0000000E+000	0,0000000E+000	0,0000000E+000	2,4348993E+000	2,3516899E+001	8,7565102E+001	8,895251512108793E-003
1,5846856E-001	1,8695549E+001	2,6250485E-001	1,8697392E+001	-8,0443919E-001	10/07/2024 14:33:01.8320	6,9919455E-001	2,9044640E+000	3,8259535E+006	7,5414056E+002	1,000000000000000E+000	11	1,0644907E-002	5,6932581E-004	0	8,095815655493778E-002	5,3478125E-002	7,5088826E-004	5,3483397E-002	8,0443919E-001	7,5413738E+005	5,3709756E+007	5,3715052E+007	-8,9195564E+001	0,0000000E+000	0,0000000E+000	0,0000000E+000	8,9195564E+001	0,0000000E+000	0,0000000E+000	0,0000000E+000	-8,9195564E+001	0,0000000E+000	0,0000000E+000	0,0000000E+000	-8,0443919E-001	0,0000000E+000	0,0000000E+000	0,0000000E+000	8,0443919E-001	7,1219826E+001	8,9195564E+001	1,074356296682565E-002
1,2590654E-001	1,9956562E+001	8,9110279E-001	1,9976446E+001	-2,5566797E+000	10/07/2024 14:33:18.5579	6,9919866E-001	2,8729446E+000	1,4185480E+006	2,8226899E+003	1,000000000000000E+000	11	1,0644711E-002	5,3286308E-004	0	9,431448021816793E-002	5,0009124E-002	2,2330133E-003	5,0058953E-002	2,5566797E+000	2,8226888E+006	6,3215136E+007	6,3278124E+007	-8,7443321E+001	0,0000000E+000	0,0000000E+000	0,0000000E+000	8,7443321E+001	0,0000000E+000	0,0000000E+000	0,0000000E+000	-8,7443321E+001	0,0000000E+000	0,0000000E+000	0,0000000E+000	-2,5566797E+000	0,0000000E+000	0,0000000E+000	0,0000000E+000	2,5566797E+000	2,2395353E+001	8,7443321E+001	1,335632366323015E-002
9,9904090E-002	1,9260498E+001	1,8765241E-001	1,9261412E+001	-5,5820733E-001	10/07/2024 14:33:39.6277	6,9919837E-001	2,8081086E+000	8,4895120E+006	8,0577686E+002	1,000000000000000E+000	11	1,0646465E-002	5,5273547E-004	0	1,110574954664997E-001	5,1914811E-002	5,0579896E-004	5,1917274E-002	5,5820733E-001	8,0577294E+005	8,2704304E+007	8,2708232E+007	-8,9441795E+001	0,0000000E+000	0,0000000E+000	0,0000000E+000	8,9441795E+001	0,0000000E+000	0,0000000E+000	0,0000000E+000	-8,9441795E+001	0,0000000E+000	0,0000000E+000	0,0000000E+000	-5,5820733E-001	0,0000000E+000	0,0000000E+000	0,0000000E+000	5,5820733E-001	1,0263923E+002	8,9441795E+001	1,674301524833176E-002