File: fig_5_ni90fe10_ceo2_tio2_zro2/EIS_1/ZrO2_EIS_1.mpt
EC-Lab ASCII FILE
Nb header lines : 66

Potentio Electrochemical Impedance Spectroscopy

Run on channel : 1 (SN 10336)
User :
CE vs. WE compliance from -10 V to 10 V
Electrode connection : standard
Potential control : Ewe
Ewe ctrl range : min = -10,00 V, max = 10,00 V
Safety Limits :
	Do not start on E overload
Acquisition started on : 10/01/2024 19:01:56.866
Technique started on : 10/01/2024 19:06:58.033
Loaded Setting File :  C:\EC-lab data\Neethu\2024_10_01_Ni90Fe10_TiO2\OCP+EIS_1.mps
Saved on :
	File : OCP+EIS_1_02_PEIS_C01.mpr
	Directory : C:\EC-lab data\Neethu\2024_10_01_Ni90Fe10_ZrO2\
	Host : 10.54.33.65
Device : VMP3 (SN 0498)
Address : USB
EC-Lab for windows v11.52 (software)
Internet server v11.52 (firmware)
Command interpretor v11.50 (firmware)
Electrode material :
Initial state :
Electrolyte :
Comments :
Electrode surface area : 0,001 cm²
Characteristic mass : 0,001 g
Volume (V) : 0,001 cm³
Thickness (t) : 0,000 cm
Diameter (d) : 0,000 cm
Cell constant (k=t/A) : 0,000 cm-1
Record Ece
Cycle Definition : Charge/Discharge alternance
Mode                Single sine
E (V)               0,7000
vs.                 Ref
tE (h:m:s)          0:00:0,0000
record              0
dI                  0,000
unit dI             mA
dt (s)              0,000
fi                  200,000
unit fi             kHz
ff                  0,100
unit ff             Hz
Nd                  10
Points              per decade
spacing             Logarithmic
Va (mV)             10,0
pw                  0,10
Na                  2
corr                0
E range min (V)     -10,000
E range max (V)     10,000
I Range             Auto
Bandwidth           5
nc cycles           0
goto Ns'            0
nr cycles           0
inc. cycle          0

freq/Hz	Re(Z)/Ohm	-Im(Z)/Ohm	|Z|/Ohm	Phase(Z)/deg	time/s	<Ewe>/V	<I>/mA	Cs/µF	Cp/µF	cycle number	I Range	|Ewe|/V	|I|/A	Ns	(Q-Qo)/mA.h	<Ece>/V	|Ece|/V	Phase(Zce)/deg	|Zce|/Ohm	Re(Zce)/Ohm	-Im(Zce)/Ohm	Phase(Zwe-ce)/deg	|Zwe-ce|/Ohm	Re(Zwe-ce)/Ohm	-Im(Zwe-ce)/Ohm	Re(Y)/Ohm-1	Im(Y)/Ohm-1	|Y|/Ohm-1	Phase(Y)/deg	Re(C)/nF	Im(C)/nF	|C|/nF	Phase(C)/deg	Re(M)	Im(M)	|M|	Phase(M)/deg	Re(Permittivity)	Im(Permittivity)	|Permittivity|	Phase(Permittivity)/deg	Re(Resistivity)/Ohm.cm	Im(Resistivity)/Ohm.cm	|Resistivity|/Ohm.cm	Phase(Resistivity)/deg	Re(Conductivity)/mS/cm	Im(Conductivity)/mS/cm	|Conductivity|/mS/cm	Phase(Conductivity)/deg	Tan(Delta)	Loss Angle(Delta)/deg	dq/mA.h
1,9999814E+005	5,8924499E+000	-7,6283330E-001	5,9416227E+000	7,3764534E+000	10/01/2024 19:06:58.0329	6,9907814E-001	1,9197551E+000	-1,0431926E+000	-1,7195456E-002	1,000000000000000E+000	10	9,4849039E-003	1,5963491E-003	0	4,704307599941644E-004	-1,4306761E-001	6,3405733E-004	-1,1264807E+002	3,9719215E-001	-1,5294668E-001	3,6656365E-001	3,9495759E+000	5,7531667E+000	5,7395034E+000	-3,9626965E-001	1,6691130E-001	-2,1608246E-002	1,6830419E-001	-7,3764534E+000	-1,7195448E+001	1,3282504E+002	1,3393347E+002	-9,7376450E+001	0,0000000E+000	0,0000000E+000	0,0000000E+000	9,7376450E+001	0,0000000E+000	0,0000000E+000	0,0000000E+000	-9,7376450E+001	0,0000000E+000	0,0000000E+000	0,0000000E+000	7,3764534E+000	0,0000000E+000	0,0000000E+000	0,0000000E+000	-7,3764534E+000	7,7244267E+000	8,2623550E+001	4,704307599941644E-004
1,2617837E+005	5,2823081E+000	-1,7421789E-001	5,2851801E+000	1,8890101E+000	10/01/2024 19:06:58.7930	6,9909954E-001	1,8638376E+000	-7,2400651E+000	-7,8669870E-003	1,000000000000000E+000	10	1,0656018E-002	2,0162072E-003	0	8,581586076247235E-004	-1,7441647E-001	9,5275661E-004	5,4157901E+000	4,7254896E-001	4,7043949E-001	-4,4600435E-002	2,1783202E+000	5,7569075E+000	5,7527475E+000	-2,1881834E-001	1,8910550E-001	-6,2369630E-003	1,8920831E-001	-1,8890101E+000	-7,8669758E+000	2,3852798E+002	2,3865768E+002	-9,1889008E+001	0,0000000E+000	0,0000000E+000	0,0000000E+000	9,1889008E+001	0,0000000E+000	0,0000000E+000	0,0000000E+000	-9,1889008E+001	0,0000000E+000	0,0000000E+000	0,0000000E+000	1,8890101E+000	0,0000000E+000	0,0000000E+000	0,0000000E+000	-1,8890101E+000	3,0320124E+001	8,8110992E+001	1,927094777895901E-004
7,9609563E+004	5,1790700E+000	1,1140861E-003	5,1790700E+000	-1,2325076E-002	10/01/2024 19:06:59.5529	6,9911045E-001	1,8229883E+000	1,7944697E+003	8,3036706E-005	1,000000000000000E+000	10	1,0517876E-002	2,0308425E-003	0	1,238617456133869E-003	-1,9969410E-001	1,1742822E-003	1,0540083E+001	5,7822412E-001	5,6846786E-001	-1,0577069E-001	1,0431805E+000	5,7484903E+000	5,7475376E+000	-1,0465661E-001	1,9308487E-001	4,1535095E-005	1,9308487E-001	1,2325076E-002	8,3012417E-002	3,8601404E+002	3,8601404E+002	-8,9987679E+001	0,0000000E+000	0,0000000E+000	0,0000000E+000	8,9987679E+001	0,0000000E+000	0,0000000E+000	0,0000000E+000	-8,9987679E+001	0,0000000E+000	0,0000000E+000	0,0000000E+000	-1,2325076E-002	0,0000000E+000	0,0000000E+000	0,0000000E+000	1,2325076E-002	4,6487158E+003	8,9987679E+001	1,907268211276355E-004
5,0224539E+004	5,1634436E+000	7,1145475E-002	5,1639338E+000	-7,8941065E-001	10/01/2024 19:07:00.3129	6,9910747E-001	1,7899491E+000	4,4540684E+001	8,4545426E-003	1,000000000000000E+000	10	1,0320290E-002	1,9985326E-003	0	1,611354051946863E-003	-2,2308165E-001	1,2030064E-003	7,9323716E+000	6,0194486E-001	5,9618527E-001	-8,3070889E-002	1,1863177E-001	5,7596412E+000	5,7596288E+000	-1,1925414E-002	1,9363244E-001	2,6680008E-003	1,9365081E-001	7,8941065E-001	8,4545727E+000	6,1359570E+002	6,1365393E+002	-8,9210587E+001	0,0000000E+000	0,0000000E+000	0,0000000E+000	8,9210587E+001	0,0000000E+000	0,0000000E+000	0,0000000E+000	-8,9210587E+001	0,0000000E+000	0,0000000E+000	0,0000000E+000	-7,8941065E-001	0,0000000E+000	0,0000000E+000	0,0000000E+000	7,8941065E-001	7,2575851E+001	8,9210587E+001	1,843665756972881E-004
3,1686090E+004	5,1773496E+000	1,1185938E-001	5,1785579E+000	-1,2377131E+000	10/01/2024 19:07:01.0729	6,9910610E-001	1,7628804E+000	4,4903381E+001	2,0951070E-002	1,000000000000000E+000	10	1,0254672E-002	1,9802176E-003	0	1,984673884933148E-003	-2,4452181E-001	1,1995974E-003	5,4777265E+000	6,0579067E-001	6,0302424E-001	-5,7828043E-002	-5,3554970E-001	5,7806263E+000	5,7803736E+000	5,4031339E-002	1,9305889E-001	4,1711396E-003	1,9310395E-001	1,2377131E+000	2,0951132E+001	9,6970874E+002	9,6993506E+002	-8,8762283E+001	0,0000000E+000	0,0000000E+000	0,0000000E+000	8,8762283E+001	0,0000000E+000	0,0000000E+000	0,0000000E+000	-8,8762283E+001	0,0000000E+000	0,0000000E+000	0,0000000E+000	-1,2377131E+000	0,0000000E+000	0,0000000E+000	0,0000000E+000	1,2377131E+000	4,6284447E+001	8,8762283E+001	1,848338703355306E-004
1,9995176E+004	5,1922393E+000	1,5805602E-001	5,1946445E+000	-1,7435921E+000	10/01/2024 19:07:01.8329	6,9910532E-001	1,7395358E+000	5,0359783E+001	4,6622362E-002	1,000000000000000E+000	10	1,0177859E-002	1,9592985E-003	0	2,341792736830746E-003	-2,6726025E-001	1,2015933E-003	3,0518451E+000	6,1327732E-001	6,1240757E-001	-3,2650616E-002	-1,2376434E+000	5,8060017E+000	5,8046470E+000	1,2540540E-001	1,9241683E-001	5,8573261E-003	1,9250596E-001	1,7435921E+000	4,6622345E+001	1,5315739E+003	1,5322833E+003	-8,8256409E+001	0,0000000E+000	0,0000000E+000	0,0000000E+000	8,8256409E+001	0,0000000E+000	0,0000000E+000	0,0000000E+000	-8,8256409E+001	0,0000000E+000	0,0000000E+000	0,0000000E+000	-1,7435921E+000	0,0000000E+000	0,0000000E+000	0,0000000E+000	1,7435921E+000	3,2850628E+001	8,8256409E+001	1,800553797047079E-004
1,2609485E+004	5,2274170E+000	2,4570100E-001	5,2331882E+000	-2,6910570E+000	10/01/2024 19:07:02.4699	6,9910300E-001	1,7199526E+000	5,1370743E+001	1,1323925E-001	1,000000000000000E+000	10	1,0894097E-002	2,0817325E-003	0	2,640678248748196E-003	-2,8341198E-001	1,2473484E-003	3,0097501E+000	5,9918761E-001	5,9836107E-001	-3,1460881E-002	-2,1060750E+000	5,8297157E+000	5,8257780E+000	2,1424012E-001	1,9087738E-001	8,9716893E-003	1,9108811E-001	2,6910570E+000	1,1323918E+002	2,4092244E+003	2,4118840E+003	-8,7308945E+001	0,0000000E+000	0,0000000E+000	0,0000000E+000	8,7308945E+001	0,0000000E+000	0,0000000E+000	0,0000000E+000	-8,7308945E+001	0,0000000E+000	0,0000000E+000	0,0000000E+000	-2,6910570E+000	0,0000000E+000	0,0000000E+000	0,0000000E+000	2,6910570E+000	2,1275522E+001	8,7308945E+001	1,201973084736384E-004
7,9609565E+003	5,2629294E+000	3,2862946E-001	5,2731795E+000	-3,5730419E+000	10/01/2024 19:07:03.1069	6,9910395E-001	1,7041159E+000	6,0834278E+001	2,3627418E-001	1,000000000000000E+000	10	1,0614784E-002	2,0129760E-003	0	2,939059742320238E-003	-3,0088103E-001	1,2300313E-003	1,5778130E+000	6,1105114E-001	6,1081946E-001	-1,6825018E-002	-3,0386600E+000	5,8820190E+000	5,8737488E+000	3,1180444E-001	1,8927029E-001	1,1818474E-002	1,8963891E-001	3,5730419E+000	2,3627431E+002	3,7838794E+003	3,7912490E+003	-8,6426956E+001	0,0000000E+000	0,0000000E+000	0,0000000E+000	8,6426956E+001	0,0000000E+000	0,0000000E+000	0,0000000E+000	-8,6426956E+001	0,0000000E+000	0,0000000E+000	0,0000000E+000	-3,5730419E+000	0,0000000E+000	0,0000000E+000	0,0000000E+000	3,5730419E+000	1,6014782E+001	8,6426956E+001	1,189494110553965E-004
5,0196709E+003	5,3232179E+000	4,9746457E-001	5,3464117E+000	-5,3388906E+000	10/01/2024 19:07:03.7439	6,9909561E-001	1,6879656E+000	6,3735699E+001	5,5180073E-001	1,000000000000000E+000	10	1,0056868E-002	1,8810501E-003	0	3,232517754757525E-003	-3,1789190E-001	1,1618990E-003	4,7755572E-001	6,1768633E-001	6,1766487E-001	-5,1483065E-003	-4,7372317E+000	5,9612465E+000	5,9408827E+000	4,9231625E-001	1,8622991E-001	1,7403530E-002	1,8704134E-001	5,3388906E+000	5,5180066E+002	5,9046523E+003	5,9303799E+003	-8,4661110E+001	0,0000000E+000	0,0000000E+000	0,0000000E+000	8,4661110E+001	0,0000000E+000	0,0000000E+000	0,0000000E+000	-8,4661110E+001	0,0000000E+000	0,0000000E+000	0,0000000E+000	-5,3388906E+000	0,0000000E+000	0,0000000E+000	0,0000000E+000	5,3388906E+000	1,0700698E+001	8,4661110E+001	1,766803976616937E-004
3,1680613E+003	5,4052110E+000	7,1472251E-001	5,4522595E+000	-7,5324335E+000	10/01/2024 19:07:04.4178	6,9915289E-001	1,6802077E+000	7,0289284E+001	1,2078444E+000	1,000000000000000E+000	10	1,0201139E-002	1,8709931E-003	0	3,539818724668378E-003	-3,3557096E-001	1,1651700E-003	-6,6155845E-001	6,2275487E-001	6,2271339E-001	7,1904003E-003	-6,8292985E+000	6,0709991E+000	6,0279245E+000	7,2191292E-001	1,8182752E-001	2,4042767E-002	1,8341020E-001	7,5324335E+000	1,2078442E+003	9,1345293E+003	9,2140391E+003	-8,2467567E+001	0,0000000E+000	0,0000000E+000	0,0000000E+000	8,2467567E+001	0,0000000E+000	0,0000000E+000	0,0000000E+000	-8,2467567E+001	0,0000000E+000	0,0000000E+000	0,0000000E+000	-7,5324335E+000	0,0000000E+000	0,0000000E+000	0,0000000E+000	7,5324335E+000	7,5626707E+000	8,2467567E+001	1,712280091837716E-004
1,9980818E+003	5,5356526E+000	1,0474674E+000	5,6338830E+000	-1,0714939E+001	10/01/2024 19:07:05.3175	6,9917417E-001	1,6641284E+000	7,6044250E+001	2,6286435E+000	1,000000000000000E+000	10	1,0250469E-002	1,8194322E-003	0	3,951609667483394E-003	-3,6000857E-001	1,1311505E-003	-6,0379040E-001	6,2170523E-001	6,2167072E-001	6,5514902E-003	-9,7138166E+000	6,2468863E+000	6,1573234E+000	1,0540189E+000	1,7440270E-001	3,3000831E-002	1,7749748E-001	1,0714939E+001	2,6286426E+003	1,3891848E+004	1,4138359E+004	-7,9285065E+001	0,0000000E+000	0,0000000E+000	0,0000000E+000	7,9285065E+001	0,0000000E+000	0,0000000E+000	0,0000000E+000	-7,9285065E+001	0,0000000E+000	0,0000000E+000	0,0000000E+000	-1,0714939E+001	0,0000000E+000	0,0000000E+000	0,0000000E+000	1,0714939E+001	5,2847972E+000	7,9285065E+001	2,062299410203641E-004
1,2604036E+003	5,7225313E+000	1,5116516E+000	5,9188223E+000	-1,4797132E+001	10/01/2024 19:07:06.2172	6,9915414E-001	1,6471200E+000	8,3533142E+001	5,4486842E+000	1,000000000000000E+000	10	1,0229504E-002	1,7283005E-003	0	4,353915269919710E-003	-3,8328156E-001	1,0758048E-003	-2,0776231E+000	6,2246400E-001	6,2205482E-001	2,2566449E-002	-1,3594037E+001	6,5274496E+000	6,3445864E+000	1,5342181E+000	1,6334942E-001	4,3150026E-002	1,6895252E-001	1,4797132E+001	5,4486851E+003	2,0626623E+004	2,1334145E+004	-7,5202866E+001	0,0000000E+000	0,0000000E+000	0,0000000E+000	7,5202866E+001	0,0000000E+000	0,0000000E+000	0,0000000E+000	-7,5202866E+001	0,0000000E+000	0,0000000E+000	0,0000000E+000	-1,4797132E+001	0,0000000E+000	0,0000000E+000	0,0000000E+000	1,4797132E+001	3,7856152E+000	7,5202866E+001	2,007132169431613E-004
7,9525409E+002	6,0438304E+000	2,2303941E+000	6,4422469E+000	-2,0255903E+001	10/01/2024 19:07:07.1162	6,9914204E-001	1,6317312E+000	8,9728951E+001	1,0755264E+001	1,000000000000000E+000	10	1,0242368E-002	1,5898751E-003	0	4,756165329380317E-003	-4,0472174E-001	9,8507083E-004	-2,6069160E+000	6,1959010E-001	6,1894888E-001	2,8181169E-002	-1,8725834E+001	7,0351825E+000	6,6627793E+000	2,2585752E+000	1,4562555E-001	5,3741146E-002	1,5522535E-001	2,0255903E+001	1,0755266E+004	2,9144174E+004	3,1065393E+004	-6,9744095E+001	0,0000000E+000	0,0000000E+000	0,0000000E+000	6,9744095E+001	0,0000000E+000	0,0000000E+000	0,0000000E+000	-6,9744095E+001	0,0000000E+000	0,0000000E+000	0,0000000E+000	-2,0255903E+001	0,0000000E+000	0,0000000E+000	0,0000000E+000	2,0255903E+001	2,7097590E+000	6,9744095E+001	2,004305094812434E-004
5,0208865E+002	6,5510073E+000	3,2088130E+000	7,2946677E+000	-2,6096527E+001	10/01/2024 19:07:08.0134	6,9916701E-001	1,6199020E+000	9,8785988E+001	1,9114946E+001	1,000000000000000E+000	10	1,0207757E-002	1,3993451E-003	0	5,151682801965346E-003	-4,2642918E-001	8,9451903E-004	-3,7138777E+000	6,3924122E-001	6,3789880E-001	4,1406222E-002	-2,4328484E+001	7,8895054E+000	7,1889062E+000	3,2502191E+000	1,2311105E-001	6,0302231E-002	1,3708644E-001	2,6096527E+001	1,9114947E+004	3,9024449E+004	4,3454445E+004	-6,3903473E+001	0,0000000E+000	0,0000000E+000	0,0000000E+000	6,3903473E+001	0,0000000E+000	0,0000000E+000	0,0000000E+000	-6,3903473E+001	0,0000000E+000	0,0000000E+000	0,0000000E+000	-2,6096527E+001	0,0000000E+000	0,0000000E+000	0,0000000E+000	2,6096527E+001	2,0415671E+000	6,3903473E+001	1,972796113871352E-004
3,1672299E+002	7,4753370E+000	4,5523639E+000	8,7524099E+000	-3,1340763E+001	10/01/2024 19:07:08.9122	6,9916356E-001	1,6081477E+000	1,1038334E+002	2,9862226E+001	1,000000000000000E+000	10	1,0183596E-002	1,1635191E-003	0	5,545392097329708E-003	-4,4699115E-001	7,2973751E-004	-4,7166433E+000	6,2718135E-001	6,2505740E-001	5,1571876E-002	-2,9612144E+001	9,3173285E+000	8,1003942E+000	4,6039357E+000	9,7583294E-002	5,9426703E-002	1,1425424E-001	3,1340763E+001	2,9862227E+004	4,9036109E+004	5,7413348E+004	-5,8659237E+001	0,0000000E+000	0,0000000E+000	0,0000000E+000	5,8659237E+001	0,0000000E+000	0,0000000E+000	0,0000000E+000	-5,8659237E+001	0,0000000E+000	0,0000000E+000	0,0000000E+000	-3,1340763E+001	0,0000000E+000	0,0000000E+000	0,0000000E+000	3,1340763E+001	1,6420782E+000	5,8659241E+001	1,954741001190139E-004
1,9980818E+002	9,1346331E+000	6,1245680E+000	1,0997811E+001	-3,3840973E+001	10/01/2024 19:07:09.8074	6,9915700E-001	1,5968895E+000	1,3005630E+002	4,0333858E+001	1,000000000000000E+000	10	1,0166034E-002	9,2436885E-004	0	5,937374112772794E-003	-4,6783945E-001	6,0403120E-004	-1,0239225E+001	6,5345258E-001	6,4304578E-001	1,1615674E-001	-3,2548561E+001	1,1599553E+001	9,7776785E+000	6,2407246E+000	7,5522885E-002	5,0636414E-002	9,0927184E-002	3,3840973E+001	4,0333863E+004	6,0156902E+004	7,2427023E+004	-5,6159027E+001	0,0000000E+000	0,0000000E+000	0,0000000E+000	5,6159027E+001	0,0000000E+000	0,0000000E+000	0,0000000E+000	-5,6159027E+001	0,0000000E+000	0,0000000E+000	0,0000000E+000	-3,3840973E+001	0,0000000E+000	0,0000000E+000	0,0000000E+000	3,3840973E+001	1,4914739E+000	5,6159027E+001	1,967870479367495E-004
1,2600809E+002	1,1766832E+001	7,5388031E+000	1,3974688E+001	-3,2646976E+001	10/01/2024 19:07:10.7076	6,9917434E-001	1,5864524E+000	1,6754028E+002	4,8757324E+001	1,000000000000000E+000	10	1,0170085E-002	7,2775048E-004	0	6,329441877700032E-003	-4,8815322E-001	5,0057506E-004	-8,4769983E+000	6,8783885E-001	6,8032432E-001	1,0139594E-001	-3,1542051E+001	1,4604943E+001	1,2447157E+001	7,6401992E+000	6,0252540E-002	3,8602747E-002	7,1557954E-002	3,2646976E+001	4,8757328E+004	7,6102164E+004	9,0381508E+004	-5,7353024E+001	0,0000000E+000	0,0000000E+000	0,0000000E+000	5,7353024E+001	0,0000000E+000	0,0000000E+000	0,0000000E+000	-5,7353024E+001	0,0000000E+000	0,0000000E+000	0,0000000E+000	-3,2646976E+001	0,0000000E+000	0,0000000E+000	0,0000000E+000	3,2646976E+001	1,5608356E+000	5,7353027E+001	1,936649103611897E-004
7,9516548E+001	1,5071570E+001	8,0564766E+000	1,7089735E+001	-2,8126640E+001	10/01/2024 19:07:11.6095	6,9916010E-001	1,5775676E+000	2,4843768E+002	5,5212460E+001	1,000000000000000E+000	10	1,0141556E-002	5,9342966E-004	0	6,717486592854373E-003	-5,0785601E-001	4,4907650E-004	-2,2342207E+001	7,5674766E-001	6,9993860E-001	2,8766826E-001	-2,7881725E+001	1,7842793E+001	1,5771509E+001	8,3441448E+000	5,1604532E-002	2,7585097E-002	5,8514658E-002	2,8126640E+001	5,5212457E+004	1,0328813E+005	1,1711897E+005	-6,1873360E+001	0,0000000E+000	0,0000000E+000	0,0000000E+000	6,1873360E+001	0,0000000E+000	0,0000000E+000	0,0000000E+000	-6,1873360E+001	0,0000000E+000	0,0000000E+000	0,0000000E+000	-2,8126640E+001	0,0000000E+000	0,0000000E+000	0,0000000E+000	2,8126640E+001	1,8707397E+000	6,1873360E+001	1,946929596668215E-004
5,0144421E+001	1,8455637E+001	7,4097800E+000	1,9887568E+001	-2,1875038E+001	10/01/2024 19:07:12.7637	6,9915456E-001	1,5418671E+000	4,2834354E+002	5,9461998E+001	1,000000000000000E+000	11	1,0167871E-002	5,1126769E-004	0	7,197804856560477E-003	-5,3152996E-001	4,0162081E-004	-1,4567243E+001	7,8553921E-001	7,6028657E-001	1,9757573E-001	-2,1598024E+001	2,0666967E+001	1,9215923E+001	7,6073556E+000	4,6662252E-002	1,8734494E-002	5,0282672E-002	2,1875038E+001	5,9461996E+004	1,4810277E+005	1,5959373E+005	-6,8124962E+001	0,0000000E+000	0,0000000E+000	0,0000000E+000	6,8124962E+001	0,0000000E+000	0,0000000E+000	0,0000000E+000	-6,8124962E+001	0,0000000E+000	0,0000000E+000	0,0000000E+000	-2,1875038E+001	0,0000000E+000	0,0000000E+000	0,0000000E+000	2,1875038E+001	2,4907131E+000	6,8124962E+001	2,815319674500496E-004
3,1672298E+001	2,0980867E+001	5,9240232E+000	2,1801167E+001	-1,5767217E+001	10/01/2024 19:07:13.6417	6,9915748E-001	1,5315864E+000	8,4824988E+002	6,2632225E+001	1,000000000000000E+000	11	1,0156740E-002	4,6588056E-004	0	7,566817026208142E-003	-5,4951453E-001	3,6736397E-004	-3,4605221E+001	7,8853685E-001	6,4903253E-001	4,4782487E-001	-1,6414192E+001	2,2548903E+001	2,1629900E+001	6,3718481E+000	4,4143215E-002	1,2463995E-002	4,5869105E-002	1,5767217E+001	6,2632238E+004	2,2182195E+005	2,3049464E+005	-7,4232780E+001	0,0000000E+000	0,0000000E+000	0,0000000E+000	7,4232780E+001	0,0000000E+000	0,0000000E+000	0,0000000E+000	-7,4232780E+001	0,0000000E+000	0,0000000E+000	0,0000000E+000	-1,5767217E+001	0,0000000E+000	0,0000000E+000	0,0000000E+000	1,5767217E+001	3,5416586E+000	7,4232780E+001	1,793101036817657E-004
1,9980818E+001	2,2619194E+001	4,3388872E+000	2,3031584E+001	-1,0858758E+001	10/01/2024 19:07:14.5395	6,9915265E-001	1,5209477E+000	1,8358132E+003	6,5153481E+001	1,000000000000000E+000	11	1,0159390E-002	4,4110688E-004	0	7,940929806260275E-003	-5,6578076E-001	5,6619308E-004	-5,2722998E+000	1,2835734E+000	1,2781429E+000	1,1794651E-001	-1,0564250E+001	2,4309383E+001	2,3897337E+001	4,4568338E+000	4,2641208E-002	8,1795752E-003	4,3418638E-002	1,0858758E+001	6,5153477E+004	3,3965372E+005	3,4584625E+005	-7,9141243E+001	0,0000000E+000	0,0000000E+000	0,0000000E+000	7,9141243E+001	0,0000000E+000	0,0000000E+000	0,0000000E+000	-7,9141243E+001	0,0000000E+000	0,0000000E+000	0,0000000E+000	-1,0858758E+001	0,0000000E+000	0,0000000E+000	0,0000000E+000	1,0858758E+001	5,2131324E+000	7,9141243E+001	1,880199860039211E-004
1,2600809E+001	2,3494875E+001	3,0411048E+000	2,3690872E+001	-7,3751855E+000	10/01/2024 19:07:15.4974	6,9916528E-001	1,5103421E+000	4,1532715E+003	6,8437004E+001	1,000000000000000E+000	11	1,0147334E-002	4,2832253E-004	0	8,337339579520644E-003	-5,8391804E-001	1,9075647E-004	-3,1203747E+001	4,4535708E-001	3,8092744E-001	2,3073190E-001	-7,8029647E+000	2,4098940E+001	2,3875803E+001	3,2718368E+000	4,1861136E-002	5,4183775E-003	4,2210348E-002	7,3751855E+000	6,8436977E+004	5,2872844E+005	5,3313919E+005	-8,2624817E+001	0,0000000E+000	0,0000000E+000	0,0000000E+000	8,2624817E+001	0,0000000E+000	0,0000000E+000	0,0000000E+000	-8,2624817E+001	0,0000000E+000	0,0000000E+000	0,0000000E+000	-7,3751855E+000	0,0000000E+000	0,0000000E+000	0,0000000E+000	7,3751855E+000	7,7257695E+000	8,2624817E+001	2,177731153908090E-004
7,9557004E+000	2,4075975E+001	2,0465667E+000	2,4162802E+001	-4,8587198E+000	10/01/2024 19:07:16.5037	6,9915688E-001	1,4995236E+000	9,7749785E+003	7,0125023E+001	1,000000000000000E+000	11	1,0146464E-002	4,1992083E-004	0	8,751126075116309E-003	-6,0178804E-001	1,9331778E-004	-3,0048071E+001	4,6036720E-001	3,9849642E-001	2,3051803E-001	-5,3154502E+000	2,4580173E+001	2,4474472E+001	2,2770848E+000	4,1237213E-002	3,5053494E-003	4,1385930E-002	4,8587198E+000	7,0125008E+004	8,2495638E+005	8,2793150E+005	-8,5141281E+001	0,0000000E+000	0,0000000E+000	0,0000000E+000	8,5141281E+001	0,0000000E+000	0,0000000E+000	0,0000000E+000	-8,5141281E+001	0,0000000E+000	0,0000000E+000	0,0000000E+000	-4,8587198E+000	0,0000000E+000	0,0000000E+000	0,0000000E+000	4,8587198E+000	1,1764080E+001	8,5141281E+001	2,297977115996303E-004
5,0144420E+000	2,4407602E+001	1,4449941E+000	2,4450338E+001	-3,3881056E+000	10/01/2024 19:07:17.3147	6,9915050E-001	1,4908829E+000	2,1965012E+004	7,6717392E+001	1,000000000000000E+000	11	1,0144519E-002	4,1490301E-004	0	9,079934580347605E-003	-6,1431235E-001	1,7205356E-003	-6,9916451E+001	4,1468382E+000	1,4239829E+000	3,8946810E+000	-1,1679178E+001	2,6377697E+001	2,5831585E+001	5,3396749E+000	4,0827740E-002	2,4171092E-003	4,0899228E-002	3,3881056E+000	7,6717430E+004	1,2958445E+006	1,2981135E+006	-8,6611893E+001	0,0000000E+000	0,0000000E+000	0,0000000E+000	8,6611893E+001	0,0000000E+000	0,0000000E+000	0,0000000E+000	-8,6611893E+001	0,0000000E+000	0,0000000E+000	0,0000000E+000	-3,3881056E+000	0,0000000E+000	0,0000000E+000	0,0000000E+000	3,3881056E+000	1,6891144E+001	8,6611893E+001	1,786212765552339E-004
3,1655185E+000	2,4635946E+001	8,6443704E-001	2,4651108E+001	-2,0095954E+000	10/01/2024 19:07:18.5644	6,9915754E-001	1,4794023E+000	5,8162344E+004	7,1521362E+001	1,000000000000000E+000	11	1,0140356E-002	4,1135497E-004	0	9,589707348793913E-003	-6,3405329E-001	5,2686728E-004	1,1073422E+002	1,2808093E+000	-4,5344943E-001	-1,1978548E+000	7,8991914E-001	2,4184795E+001	2,4182497E+001	-3,3341771E-001	4,0541179E-002	1,4225269E-003	4,0566128E-002	2,0095954E+000	7,1521445E+004	2,0383166E+006	2,0395710E+006	-8,7990402E+001	0,0000000E+000	0,0000000E+000	0,0000000E+000	8,7990402E+001	0,0000000E+000	0,0000000E+000	0,0000000E+000	-8,7990402E+001	0,0000000E+000	0,0000000E+000	0,0000000E+000	-2,0095954E+000	0,0000000E+000	0,0000000E+000	0,0000000E+000	2,0095954E+000	2,8499411E+001	8,7990402E+001	2,859253102567745E-004
1,9970603E+000	2,5076908E+001	6,5277684E-001	2,5085403E+001	-1,4911293E+000	10/01/2024 19:07:20.5094	6,9917911E-001	1,4624500E+000	1,2208554E+005	8,2670677E+001	1,000000000000000E+000	11	1,0144457E-002	4,0439682E-004	0	1,038231242274071E-002	-6,6192746E-001	3,2534820E-003	-3,6356766E+001	8,0452709E+000	6,4791894E+000	4,7693281E+000	-9,7496042E+000	3,2018532E+001	3,1556097E+001	5,4221048E+000	3,9850321E-002	1,0373434E-003	3,9863821E-002	1,4911293E+000	8,2670547E+004	3,1758558E+006	3,1769315E+006	-8,8508873E+001	0,0000000E+000	0,0000000E+000	0,0000000E+000	8,8508873E+001	0,0000000E+000	0,0000000E+000	0,0000000E+000	-8,8508873E+001	0,0000000E+000	0,0000000E+000	0,0000000E+000	-1,4911293E+000	0,0000000E+000	0,0000000E+000	0,0000000E+000	1,4911293E+000	3,8415745E+001	8,8508873E+001	4,360846544104995E-004
1,2596742E+000	2,5368090E+001	5,7609630E-001	2,5374630E+001	-1,3009342E+000	10/01/2024 19:07:23.5588	6,9917595E-001	1,4378253E+000	2,1931423E+005	1,1304662E+002	1,000000000000000E+000	11	1,0154292E-002	4,0017499E-004	0	1,158344558643358E-002	-6,9404000E-001	4,3824934E-003	-1,0193062E+002	1,0951443E+001	-2,2639601E+000	1,0714877E+001	-2,6044731E+001	2,5715500E+001	2,3104130E+001	1,1290974E+001	3,9399281E-002	8,9473749E-004	3,9409440E-002	1,3009342E+000	1,1304659E+005	4,9779465E+006	4,9792300E+006	-8,8699066E+001	0,0000000E+000	0,0000000E+000	0,0000000E+000	8,8699066E+001	0,0000000E+000	0,0000000E+000	0,0000000E+000	-8,8699066E+001	0,0000000E+000	0,0000000E+000	0,0000000E+000	-1,3009342E+000	0,0000000E+000	0,0000000E+000	0,0000000E+000	1,3009342E+000	4,4034462E+001	8,8699066E+001	6,653111675364448E-004
7,9443753E-001	2,5850103E+001	2,0710768E-001	2,5850933E+001	-4,5903653E-001	10/01/2024 19:07:28.3607	6,9917434E-001	1,4024279E+000	9,6730669E+005	6,2087494E+001	1,000000000000000E+000	11	1,0144958E-002	3,9244071E-004	0	1,346352368192150E-002	-7,3661488E-001	1,7511090E-003	-1,4669885E+002	4,4620981E+000	-3,7294056E+000	2,4498680E+000	-6,8491368E+000	2,2279694E+001	2,2120697E+001	2,6569757E+000	3,8682085E-002	3,0991583E-004	3,8683325E-002	4,5903653E-001	6,2087660E+004	7,7494380E+006	7,7496865E+006	-8,9540962E+001	0,0000000E+000	0,0000000E+000	0,0000000E+000	8,9540962E+001	0,0000000E+000	0,0000000E+000	0,0000000E+000	-8,9540962E+001	0,0000000E+000	0,0000000E+000	0,0000000E+000	-4,5903653E-001	0,0000000E+000	0,0000000E+000	0,0000000E+000	4,5903653E-001	1,2481480E+002	8,9540962E+001	1,046534925258202E-003
5,0118679E-001	2,6963701E+001	6,2714778E-002	2,6963774E+001	-1,3326383E-001	10/01/2024 19:07:35.9380	6,9916695E-001	1,3559443E+000	5,0634975E+006	2,7392334E+001	1,000000000000000E+000	11	1,0139612E-002	3,7604570E-004	0	1,638310476001332E-002	-7,8484094E-001	3,4387927E-003	-2,5310472E+001	9,1446133E+000	8,2667704E+000	3,9095335E+000	-6,4329515E+000	3,5453701E+001	3,5230473E+001	3,9722483E+000	3,7086695E-002	8,6259824E-005	3,7086796E-002	1,3326383E-001	2,7392092E+004	1,1777108E+007	1,1777140E+007	-8,9866737E+001	0,0000000E+000	0,0000000E+000	0,0000000E+000	8,9866737E+001	0,0000000E+000	0,0000000E+000	0,0000000E+000	-8,9866737E+001	0,0000000E+000	0,0000000E+000	0,0000000E+000	-1,3326383E-001	0,0000000E+000	0,0000000E+000	0,0000000E+000	1,3326383E-001	4,2994174E+002	8,9866737E+001	1,614751651768418E-003
3,1619310E-001	2,8149405E+001	3,9578044E-001	2,8152187E+001	-8,0552518E-001	10/01/2024 19:07:47.9220	6,9917434E-001	1,3016084E+000	1,2717841E+006	2,5136095E+002	1,000000000000000E+000	11	1,0143089E-002	3,6029489E-004	0	2,078297346655802E-002	-8,3073777E-001	9,1612218E-003	-5,6000019E+001	2,5427010E+001	1,4218596E+001	2,1079952E+001	-2,6879797E+001	4,7500046E+001	4,2368000E+001	2,1475733E+001	3,5517711E-002	4,9937877E-004	3,5521220E-002	8,0552518E-001	2,5136139E+005	1,7877742E+007	1,7879508E+007	-8,9194473E+001	0,0000000E+000	0,0000000E+000	0,0000000E+000	8,9194473E+001	0,0000000E+000	0,0000000E+000	0,0000000E+000	-8,9194473E+001	0,0000000E+000	0,0000000E+000	0,0000000E+000	-8,0552518E-001	0,0000000E+000	0,0000000E+000	0,0000000E+000	8,0552518E-001	7,1123787E+001	8,9194473E+001	2,415703070757756E-003
1,9933917E-001	2,8909281E+001	4,8496327E-001	2,8913349E+001	-9,6106654E-001	10/01/2024 19:08:06.8928	6,9917476E-001	1,2459362E+000	1,6463368E+006	4,6316907E+002	1,000000000000000E+000	11	1,0150001E-002	3,5104898E-004	0	2,735222941862471E-002	-8,7535548E-001	1,2371457E-002	-8,3652420E+001	3,5241398E+001	3,8962774E+000	3,5025349E+001	-4,7267265E+001	4,8344460E+001	3,2805557E+001	3,5510311E+001	3,4581237E-002	5,8011228E-004	3,4586102E-002	9,6106654E-001	4,6316938E+005	2,7610100E+007	2,7613984E+007	-8,9038933E+001	0,0000000E+000	0,0000000E+000	0,0000000E+000	8,9038933E+001	0,0000000E+000	0,0000000E+000	0,0000000E+000	-8,9038933E+001	0,0000000E+000	0,0000000E+000	0,0000000E+000	-9,6106654E-001	0,0000000E+000	0,0000000E+000	0,0000000E+000	9,6106654E-001	5,9611279E+001	8,9038933E+001	3,626639158350313E-003
1,2590654E-001	2,8585096E+001	1,5988497E-001	2,8585543E+001	-3,2046905E-001	10/01/2024 19:08:36.9173	6,9918102E-001	1,2186906E+000	7,9061340E+006	2,4733559E+002	1,000000000000000E+000	11	1,0150668E-002	3,5509796E-004	0	3,750789181371483E-002	-9,3081737E-001	1,1350501E-002	-9,0172256E+001	3,1964422E+001	-9,6100956E-002	3,1964277E+001	-4,8432102E+001	4,2936981E+001	2,8488995E+001	3,2124161E+001	3,4982171E-002	1,9566572E-004	3,4982719E-002	3,2046905E-001	2,4733842E+005	4,4219988E+007	4,4220680E+007	-8,9679527E+001	0,0000000E+000	0,0000000E+000	0,0000000E+000	8,9679527E+001	0,0000000E+000	0,0000000E+000	0,0000000E+000	-8,9679527E+001	0,0000000E+000	0,0000000E+000	0,0000000E+000	-3,2046905E-001	0,0000000E+000	0,0000000E+000	0,0000000E+000	3,2046905E-001	1,7878539E+002	8,9679527E+001	5,676818584950276E-003
9,9904090E-002	2,9744276E+001	-6,6313550E-002	2,9744350E+001	1,2773819E-001	10/01/2024 19:08:57.9944	6,9917738E-001	1,1854706E+000	-2,4023406E+007	-1,1940710E+002	1,000000000000000E+000	11	1,0149127E-002	3,4121191E-004	0	4,451756198903204E-002	-9,5890152E-001	1,1851254E-002	-7,4468239E+001	3,4732826E+001	9,3004951E+000	3,3464458E+001	-4,0543041E+001	5,1380249E+001	3,9044769E+001	3,3398144E+001	3,3619747E-002	-7,4953736E-005	3,3619829E-002	-1,2773819E-001	-1,1940781E+005	5,3558860E+007	5,3558992E+007	-9,0127739E+001	0,0000000E+000	0,0000000E+000	0,0000000E+000	9,0127739E+001	0,0000000E+000	0,0000000E+000	0,0000000E+000	-9,0127739E+001	0,0000000E+000	0,0000000E+000	0,0000000E+000	1,2773819E-001	0,0000000E+000	0,0000000E+000	0,0000000E+000	-1,2773819E-001	4,4853995E+002	8,9872261E+001	7,009670175317208E-003