File: fig_si_ecsa/TiO2/10.txt
EC-Lab ASCII FILE
Ewe/V	<I>/mA	cycle number
6,3204400E-002	1,964092999696732E-002	1,000000000000000E+000
6,8275094E-002	-2,622484029685714E-003	1,000000000000000E+000
7,2268009E-002	-1,726422917541908E-003	1,000000000000000E+000
7,6291688E-002	-1,259047745002632E-003	1,000000000000000E+000
8,0288857E-002	-9,628641245298126E-004	1,000000000000000E+000
8,4313601E-002	-7,361529616092509E-004	1,000000000000000E+000
8,8248178E-002	-5,599462840985294E-004	1,000000000000000E+000
9,2323832E-002	-4,113103601501196E-004	1,000000000000000E+000
9,6333735E-002	-2,899302980885385E-004	1,000000000000000E+000
1,0030544E-001	-1,736625585424866E-004	1,000000000000000E+000
1,0428457E-001	-8,000800752688624E-005	1,000000000000000E+000
1,0829339E-001	1,816256867531106E-005	1,000000000000000E+000
1,1227889E-001	8,945090361631072E-005	1,000000000000000E+000
1,1627605E-001	1,676508590833237E-004	1,000000000000000E+000
1,2025412E-001	2,294530628014334E-004	1,000000000000000E+000
1,2425977E-001	2,950177578897922E-004	1,000000000000000E+000
1,2825587E-001	3,451196463391550E-004	1,000000000000000E+000
1,3230713E-001	4,132340737138911E-004	1,000000000000000E+000
1,3628945E-001	4,645073045813431E-004	1,000000000000000E+000
1,4027813E-001	5,160456139492488E-004	1,000000000000000E+000
1,4428802E-001	5,660814887825695E-004	1,000000000000000E+000
1,4829366E-001	6,132143380455091E-004	1,000000000000000E+000
1,5226962E-001	6,644591815495888E-004	1,000000000000000E+000
1,5626678E-001	7,157864558933000E-004	1,000000000000000E+000
1,6024378E-001	7,498895067530788E-004	1,000000000000000E+000
1,6428763E-001	8,032319269491196E-004	1,000000000000000E+000
1,6826993E-001	8,424278218660273E-004	1,000000000000000E+000
1,7227876E-001	8,878477105840644E-004	1,000000000000000E+000
1,7624940E-001	9,247086435843106E-004	1,000000000000000E+000
1,8028264E-001	9,742920231440577E-004	1,000000000000000E+000
1,8427961E-001	1,007877169721991E-003	1,000000000000000E+000
1,8827379E-001	1,048114521162701E-003	1,000000000000000E+000
1,9227521E-001	1,086085484901023E-003	1,000000000000000E+000
1,9628401E-001	1,123921488383695E-003	1,000000000000000E+000
2,0026633E-001	1,158872046087506E-003	1,000000000000000E+000
2,0425820E-001	1,207239810389220E-003	1,000000000000000E+000
2,0829882E-001	1,244127789086634E-003	1,000000000000000E+000
2,1226948E-001	1,279732827377433E-003	1,000000000000000E+000
2,1628998E-001	1,319694340593372E-003	1,000000000000000E+000
2,2027338E-001	1,362783533463873E-003	1,000000000000000E+000
2,2428007E-001	1,403001130071339E-003	1,000000000000000E+000
2,2826983E-001	1,442277194318763E-003	1,000000000000000E+000
2,3229180E-001	1,478497795868297E-003	1,000000000000000E+000
2,3629279E-001	1,529689558352674E-003	1,000000000000000E+000
2,4025919E-001	1,568024105735179E-003	1,000000000000000E+000
2,4429452E-001	1,612844801490647E-003	1,000000000000000E+000
2,4827898E-001	1,659990929948882E-003	1,000000000000000E+000
2,5230369E-001	1,707389882304358E-003	1,000000000000000E+000
2,5626588E-001	1,750674207330494E-003	1,000000000000000E+000
2,6029801E-001	1,806887666774584E-003	1,000000000000000E+000
2,6426020E-001	1,851291596486351E-003	1,000000000000000E+000
2,6828173E-001	1,910007941693999E-003	1,000000000000000E+000
2,7224493E-001	1,956622098482007E-003	1,000000000000000E+000
2,7624425E-001	2,009075188888588E-003	1,000000000000000E+000
2,8026900E-001	2,065144307077098E-003	1,000000000000000E+000
2,8425980E-001	2,131743594536262E-003	1,000000000000000E+000
2,8828242E-001	2,178805624512109E-003	1,000000000000000E+000
2,9226577E-001	2,244567221539370E-003	1,000000000000000E+000
2,9623112E-001	2,300652008367855E-003	1,000000000000000E+000
3,0028242E-001	2,363435937527191E-003	1,000000000000000E+000
3,0424139E-001	2,415972016697871E-003	1,000000000000000E+000
3,0828947E-001	2,481690781779532E-003	1,000000000000000E+000
3,1227282E-001	2,544353494832411E-003	1,000000000000000E+000
3,1624666E-001	2,609422587502852E-003	1,000000000000000E+000
3,2025230E-001	2,667246787933869E-003	1,000000000000000E+000
3,2427070E-001	2,742105748135756E-003	1,000000000000000E+000
3,2822543E-001	2,796125420395094E-003	1,000000000000000E+000
3,3223531E-001	2,867354844326007E-003	1,000000000000000E+000
3,3621126E-001	2,929291271828807E-003	1,000000000000000E+000
3,4025085E-001	2,993340702636897E-003	1,000000000000000E+000
3,4428939E-001	3,062310534005526E-003	1,000000000000000E+000
3,4827065E-001	3,135312586285484E-003	1,000000000000000E+000
3,5226142E-001	3,190617087831789E-003	1,000000000000000E+000
3,5623205E-001	3,256327903795021E-003	1,000000000000000E+000
3,6026421E-001	3,313309666097039E-003	1,000000000000000E+000
3,6352637E-001	3,329965846475075E-003	1,000000000000000E+000
3,5991842E-001	1,917601152888023E-003	1,000000000000000E+000
3,5595307E-001	1,634365814054579E-003	1,000000000000000E+000
3,5197395E-001	1,433637915060562E-003	1,000000000000000E+000
3,4796512E-001	1,253733179678592E-003	1,000000000000000E+000
3,4397006E-001	1,109843123736532E-003	1,000000000000000E+000
3,3995911E-001	9,784023270724524E-004	1,000000000000000E+000
3,3596197E-001	8,567601440450691E-004	1,000000000000000E+000
3,3193931E-001	7,318296736937380E-004	1,000000000000000E+000
3,2795277E-001	6,346386971590248E-004	1,000000000000000E+000
3,2398215E-001	5,320622765591695E-004	1,000000000000000E+000
3,1995952E-001	4,441757824611998E-004	1,000000000000000E+000
3,1595704E-001	3,477214218332010E-004	1,000000000000000E+000
3,1196412E-001	2,747699408587314E-004	1,000000000000000E+000
3,0796909E-001	1,887046713191184E-004	1,000000000000000E+000
3,0397511E-001	1,231077002500228E-004	1,000000000000000E+000
2,9993448E-001	4,387773690944980E-005	1,000000000000000E+000
2,9598290E-001	-1,820005519553649E-005	1,000000000000000E+000
2,9199421E-001	-8,701484605521423E-005	1,000000000000000E+000
2,8803313E-001	-1,456182646595878E-004	1,000000000000000E+000
2,8397340E-001	-2,132740799550476E-004	1,000000000000000E+000
2,7995607E-001	-2,588077859863236E-004	1,000000000000000E+000
2,7600768E-001	-3,103017781327291E-004	1,000000000000000E+000
2,7194899E-001	-3,706899000898517E-004	1,000000000000000E+000
2,6795185E-001	-4,249783026150705E-004	1,000000000000000E+000
2,6396739E-001	-4,624932519416486E-004	1,000000000000000E+000
2,6001269E-001	-5,202552888645346E-004	1,000000000000000E+000
2,5596777E-001	-5,608470453605857E-004	1,000000000000000E+000
2,5200775E-001	-6,107909202573520E-004	1,000000000000000E+000
2,4796815E-001	-6,521557858192193E-004	1,000000000000000E+000
2,4396567E-001	-6,910121411675832E-004	1,000000000000000E+000
2,3998445E-001	-7,333350931730787E-004	1,000000000000000E+000
2,3595439E-001	-7,786848698203763E-004	1,000000000000000E+000
2,3197207E-001	-8,119492318251591E-004	1,000000000000000E+000
2,2793987E-001	-8,567199396633494E-004	1,000000000000000E+000
2,2397242E-001	-8,835719415435095E-004	1,000000000000000E+000
2,1998270E-001	-9,246554900191450E-004	1,000000000000000E+000
2,1595585E-001	-9,566246854201719E-004	1,000000000000000E+000
2,1198307E-001	-9,863874517948117E-004	1,000000000000000E+000
2,0800745E-001	-1,021876914241207E-003	1,000000000000000E+000
2,0396858E-001	-1,054903709801790E-003	1,000000000000000E+000
1,9992580E-001	-1,082732772138783E-003	1,000000000000000E+000
1,9598061E-001	-1,122031720350839E-003	1,000000000000000E+000
1,9202273E-001	-1,138856188104172E-003	1,000000000000000E+000
1,8797038E-001	-1,171935334611957E-003	1,000000000000000E+000
1,8397240E-001	-1,198688261876732E-003	1,000000000000000E+000
1,7993152E-001	-1,231125308819441E-003	1,000000000000000E+000
1,7593648E-001	-1,251960749801516E-003	1,000000000000000E+000
1,7201144E-001	-1,284414057105703E-003	1,000000000000000E+000
1,6797715E-001	-1,306071999823426E-003	1,000000000000000E+000
1,6394924E-001	-1,342780173824092E-003	1,000000000000000E+000
1,5995087E-001	-1,365344860925325E-003	1,000000000000000E+000
1,5596975E-001	-1,391301184210334E-003	1,000000000000000E+000
1,5197259E-001	-1,414248555563442E-003	1,000000000000000E+000
1,4798284E-001	-1,433245314762684E-003	1,000000000000000E+000
1,4396024E-001	-1,462311346215380E-003	1,000000000000000E+000
1,4001080E-001	-1,492358695099092E-003	1,000000000000000E+000
1,3597651E-001	-1,510595817510167E-003	1,000000000000000E+000
1,3194327E-001	-1,542421546522139E-003	1,000000000000000E+000
1,2799278E-001	-1,555661369585085E-003	1,000000000000000E+000
1,2397122E-001	-1,587712585643636E-003	1,000000000000000E+000
1,1998361E-001	-1,604077249390289E-003	1,000000000000000E+000
1,1602251E-001	-1,632823042099421E-003	1,000000000000000E+000
1,1196383E-001	-1,645987969553698E-003	1,000000000000000E+000
1,0797621E-001	-1,678536473061994E-003	1,000000000000000E+000
1,0392919E-001	-1,696473711086178E-003	1,000000000000000E+000
9,9965960E-002	-1,728256093715401E-003	1,000000000000000E+000
9,6004881E-002	-1,736537880788093E-003	1,000000000000000E+000
9,1983318E-002	-1,769508996437290E-003	1,000000000000000E+000
8,8001005E-002	-1,787049108383197E-003	1,000000000000000E+000
8,4012330E-002	-1,804178607589742E-003	1,000000000000000E+000
7,9981223E-002	-1,830507809009528E-003	1,000000000000000E+000
7,5988293E-002	-1,855403942668261E-003	1,000000000000000E+000
7,1998566E-002	-1,872048173498592E-003	1,000000000000000E+000
6,7996092E-002	-1,902036717284422E-003	1,000000000000000E+000
6,4048126E-002	-1,914302129989661E-003	1,000000000000000E+000
6,6169366E-002	-8,984756027024914E-004	2,000000000000000E+000
7,0179261E-002	-6,856719884564414E-004	2,000000000000000E+000
7,4171111E-002	-5,391922304961874E-004	2,000000000000000E+000
7,8175709E-002	-4,108563006773815E-004	2,000000000000000E+000
8,2206823E-002	-3,182957326036805E-004	2,000000000000000E+000
8,6184010E-002	-2,152493164503414E-004	2,000000000000000E+000
9,0180978E-002	-1,407644422762898E-004	2,000000000000000E+000
9,4174966E-002	-5,573226225539813E-005	2,000000000000000E+000
9,8173186E-002	1,158253536097744E-005	2,000000000000000E+000
1,0215550E-001	7,707516528996543E-005	2,000000000000000E+000
1,0619085E-001	1,374316064355009E-004	2,000000000000000E+000
1,1015726E-001	1,828238020562125E-004	2,000000000000000E+000
1,1416926E-001	2,461187551500867E-004	2,000000000000000E+000
1,1816642E-001	3,076759996997890E-004	2,000000000000000E+000
1,2219329E-001	3,432277833935442E-004	2,000000000000000E+000
1,2617561E-001	4,021848795879917E-004	2,000000000000000E+000
1,3018019E-001	4,503303340150366E-004	2,000000000000000E+000
1,3421874E-001	5,016770870177548E-004	2,000000000000000E+000
1,3816816E-001	5,424633226438248E-004	2,000000000000000E+000
1,4219078E-001	5,890656552933397E-004	2,000000000000000E+000
1,4618477E-001	6,342346938186835E-004	2,000000000000000E+000
1,5018299E-001	6,776302464762307E-004	2,000000000000000E+000
1,5416424E-001	7,105531694833189E-004	2,000000000000000E+000
1,5816988E-001	7,608512053896774E-004	2,000000000000000E+000
1,6219251E-001	7,958787283752281E-004	2,000000000000000E+000
1,6615997E-001	8,333079121830107E-004	2,000000000000000E+000
1,7016667E-001	8,664139499564433E-004	2,000000000000000E+000
1,7415535E-001	9,024778724037990E-004	2,000000000000000E+000
1,7817691E-001	9,460990291295796E-004	2,000000000000000E+000
1,8215711E-001	9,861823902476193E-004	2,000000000000000E+000
1,8622112E-001	1,013960242104343E-003	2,000000000000000E+000
1,9014931E-001	1,057028194433464E-003	2,000000000000000E+000
1,9412844E-001	1,092576970997333E-003	2,000000000000000E+000
1,9821684E-001	1,135006880590313E-003	2,000000000000000E+000
2,0214292E-001	1,171722412066259E-003	2,000000000000000E+000
2,0614116E-001	1,213326271546845E-003	2,000000000000000E+000
2,1019241E-001	1,252513834683834E-003	2,000000000000000E+000
2,1412697E-001	1,292965604618617E-003	2,000000000000000E+000
2,1818781E-001	1,330133167087934E-003	2,000000000000000E+000
2,2216056E-001	1,371488969366678E-003	2,000000000000000E+000
2,2616728E-001	1,408240643084151E-003	2,000000000000000E+000
2,3016338E-001	1,447788283796939E-003	2,000000000000000E+000
2,3418282E-001	1,487713850548494E-003	2,000000000000000E+000
2,3817575E-001	1,521900029021906E-003	2,000000000000000E+000
2,4214427E-001	1,570313415733691E-003	2,000000000000000E+000
2,4617961E-001	1,618010945363766E-003	2,000000000000000E+000
2,5018102E-001	1,656311707780271E-003	2,000000000000000E+000
2,5416759E-001	1,714225066717961E-003	2,000000000000000E+000
2,5815839E-001	1,755221035434970E-003	2,000000000000000E+000
2,6218840E-001	1,802180660888553E-003	2,000000000000000E+000
2,6614952E-001	1,849729693882786E-003	2,000000000000000E+000
2,7015835E-001	1,906147358466927E-003	2,000000000000000E+000
2,7418736E-001	1,962520123655581E-003	2,000000000000000E+000
2,7815267E-001	2,010896065459952E-003	2,000000000000000E+000
2,8213179E-001	2,074885910756330E-003	2,000000000000000E+000
2,8618944E-001	2,125706549526922E-003	2,000000000000000E+000
2,9017490E-001	2,183383965058495E-003	2,000000000000000E+000
2,9419646E-001	2,249991095461021E-003	2,000000000000000E+000
2,9819787E-001	2,303528071529899E-003	2,000000000000000E+000
3,0213457E-001	2,356944908064589E-003	2,000000000000000E+000
3,0619755E-001	2,432180067612703E-003	2,000000000000000E+000
3,1018192E-001	2,494008758394223E-003	2,000000000000000E+000
3,1413031E-001	2,548504647738476E-003	2,000000000000000E+000
3,1814021E-001	2,618477716168858E-003	2,000000000000000E+000
3,2213524E-001	2,678210871602436E-003	2,000000000000000E+000
3,2615149E-001	2,744726760957522E-003	2,000000000000000E+000
3,3014736E-001	2,804032622296490E-003	2,000000000000000E+000
3,3415329E-001	2,881875174622378E-003	2,000000000000000E+000
3,3816528E-001	2,937508476154312E-003	2,000000000000000E+000
3,4216139E-001	3,006538944545251E-003	2,000000000000000E+000
3,4612247E-001	3,064993954063133E-003	2,000000000000000E+000
3,5018328E-001	3,135246480707328E-003	2,000000000000000E+000
3,5418409E-001	3,196825508659289E-003	2,000000000000000E+000
3,5815537E-001	3,258868125461348E-003	2,000000000000000E+000
3,6215144E-001	3,318735330443204E-003	2,000000000000000E+000
3,6196581E-001	2,113217687346385E-003	2,000000000000000E+000
3,5794422E-001	1,734941967394365E-003	2,000000000000000E+000
3,5395446E-001	1,501731315447541E-003	2,000000000000000E+000
3,4995311E-001	1,317619008558623E-003	2,000000000000000E+000
3,4599838E-001	1,161937285494928E-003	2,000000000000000E+000
3,4195134E-001	1,012009115786191E-003	2,000000000000000E+000
3,3798179E-001	8,893393411805537E-004	2,000000000000000E+000
3,3396655E-001	7,621436658087951E-004	2,000000000000000E+000
3,2993373E-001	6,603044871623717E-004	2,000000000000000E+000
3,2598603E-001	5,591557155302921E-004	2,000000000000000E+000
3,2192734E-001	4,653401440885292E-004	2,000000000000000E+000
3,1794184E-001	3,687420766890761E-004	2,000000000000000E+000
3,1395954E-001	2,909848173907742E-004	2,000000000000000E+000
3,0993265E-001	2,002278423184956E-004	2,000000000000000E+000
3,0597049E-001	1,293443500113906E-004	2,000000000000000E+000
3,0196592E-001	6,277794568368932E-005	2,000000000000000E+000
2,9800269E-001	-8,871313486743648E-006	2,000000000000000E+000
2,9399386E-001	-8,110079754694078E-005	2,000000000000000E+000
2,8996065E-001	-1,404051389815517E-004	2,000000000000000E+000
2,8596136E-001	-1,978221706609043E-004	2,000000000000000E+000
2,8199390E-001	-2,531868461636009E-004	2,000000000000000E+000
2,7796492E-001	-3,066724828334122E-004	2,000000000000000E+000
2,7393377E-001	-3,586549046643321E-004	2,000000000000000E+000
2,7001515E-001	-4,125959390303587E-004	2,000000000000000E+000
2,6598188E-001	-4,606521000891112E-004	2,000000000000000E+000
2,6198685E-001	-5,166550479568993E-004	2,000000000000000E+000
2,5796744E-001	-5,588614132513469E-004	2,000000000000000E+000
2,5397238E-001	-6,080473720902341E-004	2,000000000000000E+000
2,4997523E-001	-6,517135083817628E-004	2,000000000000000E+000
2,4601306E-001	-6,966592917942022E-004	2,000000000000000E+000
2,4197453E-001	-7,366161334411338E-004	2,000000000000000E+000
2,3796143E-001	-7,697556563841679E-004	2,000000000000000E+000
2,3402263E-001	-8,133492723303493E-004	2,000000000000000E+000
2,2995864E-001	-8,589125613475083E-004	2,000000000000000E+000
2,2594662E-001	-8,851054322062870E-004	2,000000000000000E+000
2,2195795E-001	-9,243206323945805E-004	2,000000000000000E+000
2,1800216E-001	-9,522150558714877E-004	2,000000000000000E+000
2,1397847E-001	-9,875170518945965E-004	2,000000000000000E+000
2,0997706E-001	-1,022422116942902E-003	2,000000000000000E+000
2,0596081E-001	-1,051959241724239E-003	2,000000000000000E+000
2,0199017E-001	-1,081212386014628E-003	2,000000000000000E+000
1,9797389E-001	-1,115637908730639E-003	2,000000000000000E+000
1,9398205E-001	-1,141805926265619E-003	2,000000000000000E+000
1,9000612E-001	-1,174203846285648E-003	2,000000000000000E+000
1,8595803E-001	-1,197822071171016E-003	2,000000000000000E+000
1,8195979E-001	-1,230581195192860E-003	2,000000000000000E+000
1,7793506E-001	-1,258028673031795E-003	2,000000000000000E+000
1,7400683E-001	-1,282957179177584E-003	2,000000000000000E+000
1,6996087E-001	-1,313883352041658E-003	2,000000000000000E+000
1,6595100E-001	-1,343889616287524E-003	2,000000000000000E+000
1,6195384E-001	-1,364300180823723E-003	2,000000000000000E+000
1,5798318E-001	-1,399241931250329E-003	2,000000000000000E+000
1,5397541E-001	-1,413767265114954E-003	2,000000000000000E+000
1,4998250E-001	-1,444178372400563E-003	2,000000000000000E+000
1,4600337E-001	-1,470333714813150E-003	2,000000000000000E+000
1,4198817E-001	-1,494302902385782E-003	2,000000000000000E+000
1,3794857E-001	-1,510044896551541E-003	2,000000000000000E+000
1,3400233E-001	-1,542676832253126E-003	2,000000000000000E+000
1,3001683E-001	-1,562502755809374E-003	2,000000000000000E+000
1,2594329E-001	-1,587841616937015E-003	2,000000000000000E+000
1,2195886E-001	-1,603172484599916E-003	2,000000000000000E+000
1,1796276E-001	-1,633802627448281E-003	2,000000000000000E+000
1,1395817E-001	-1,654317816751748E-003	2,000000000000000E+000
1,0998116E-001	-1,669114303324566E-003	2,000000000000000E+000
1,0596808E-001	-1,697092797257939E-003	2,000000000000000E+000
1,0196880E-001	-1,721100011006158E-003	2,000000000000000E+000
9,7974822E-002	-1,735415990373843E-003	2,000000000000000E+000
9,4049796E-002	-1,769028515371708E-003	2,000000000000000E+000
9,0001710E-002	-1,784718959781998E-003	2,000000000000000E+000
8,6019404E-002	-1,815115615264165E-003	2,000000000000000E+000
8,1970252E-002	-1,828356484043912E-003	2,000000000000000E+000
7,8004912E-002	-1,859161473812827E-003	2,000000000000000E+000
7,3969558E-002	-1,867944509959436E-003	2,000000000000000E+000
7,0009522E-002	-1,896385032590913E-003	2,000000000000000E+000
6,5960385E-002	-1,915365501460022E-003	2,000000000000000E+000
6,4176090E-002	-1,109261093949532E-003	3,000000000000000E+000
6,8198711E-002	-7,968148879795214E-004	3,000000000000000E+000
7,2159804E-002	-6,310697101273252E-004	3,000000000000000E+000
7,6148480E-002	-4,904643353290383E-004	3,000000000000000E+000
8,0175348E-002	-3,888075467767937E-004	3,000000000000000E+000
8,4183119E-002	-2,936077602902925E-004	3,000000000000000E+000
8,8194065E-002	-1,982547206754101E-004	3,000000000000000E+000
9,2215627E-002	-1,146366163027328E-004	3,000000000000000E+000
9,6191578E-002	-3,896707846075110E-005	3,000000000000000E+000
1,0019722E-001	2,853104997347641E-005	3,000000000000000E+000
1,0419439E-001	8,649513246623483E-005	3,000000000000000E+000
1,0821489E-001	1,511934067650602E-004	3,000000000000000E+000
1,1217067E-001	2,021634735403619E-004	3,000000000000000E+000
1,1618906E-001	2,592186991176634E-004	3,000000000000000E+000
1,2017773E-001	3,086795033903359E-004	3,000000000000000E+000
1,2416536E-001	3,598477743031823E-004	3,000000000000000E+000
1,2815934E-001	4,045993428176374E-004	3,000000000000000E+000
1,3217029E-001	4,608798099828464E-004	3,000000000000000E+000
1,3613987E-001	4,983822456139280E-004	3,000000000000000E+000
1,4018689E-001	5,509849470399803E-004	3,000000000000000E+000
1,4420103E-001	5,914254136398624E-004	3,000000000000000E+000
1,4816424E-001	6,283023778653127E-004	3,000000000000000E+000
1,5221551E-001	6,698931865011457E-004	3,000000000000000E+000
1,5619889E-001	7,191760849781085E-004	3,000000000000000E+000
1,6018651E-001	7,513131939857753E-004	3,000000000000000E+000
1,6416776E-001	8,042319598947243E-004	3,000000000000000E+000
1,6817340E-001	8,339662351688646E-004	3,000000000000000E+000
1,7217904E-001	8,749551087492841E-004	3,000000000000000E+000
1,7613061E-001	9,094711554266926E-004	3,000000000000000E+000
1,8017443E-001	9,550729046842003E-004	3,000000000000000E+000
1,8418494E-001	9,861870079621998E-004	3,000000000000000E+000
1,8814649E-001	1,027262445050945E-003	3,000000000000000E+000
1,9216913E-001	1,063581985363271E-003	3,000000000000000E+000
1,9616520E-001	1,105273372458113E-003	3,000000000000000E+000
2,0016767E-001	1,133196608592429E-003	3,000000000000000E+000
2,0414256E-001	1,178715644561668E-003	3,000000000000000E+000
2,0815536E-001	1,212965265358541E-003	3,000000000000000E+000
2,1217404E-001	1,252739450541820E-003	3,000000000000000E+000
2,1617757E-001	1,287434035879819E-003	3,000000000000000E+000
2,2013548E-001	1,335532273649865E-003	3,000000000000000E+000
2,2418885E-001	1,370516267882147E-003	3,000000000000000E+000
2,2817753E-001	1,412753174749752E-003	3,000000000000000E+000
2,3220560E-001	1,453365208577174E-003	3,000000000000000E+000
2,3617291E-001	1,498372848867870E-003	3,000000000000000E+000
2,4018703E-001	1,533921488670681E-003	3,000000000000000E+000
2,4418738E-001	1,583645765398007E-003	3,000000000000000E+000
2,4817397E-001	1,621122200621931E-003	3,000000000000000E+000
2,5214776E-001	1,669543233421991E-003	3,000000000000000E+000
2,5618315E-001	1,708783080243010E-003	3,000000000000000E+000
2,6017815E-001	1,766108553393110E-003	3,000000000000000E+000
2,6416475E-001	1,812223900978334E-003	3,000000000000000E+000
2,6815128E-001	1,869648626544165E-003	3,000000000000000E+000
2,7218875E-001	1,912483683823936E-003	3,000000000000000E+000
2,7616680E-001	1,963063588644022E-003	3,000000000000000E+000
2,8016293E-001	2,019603918058603E-003	3,000000000000000E+000
2,8415051E-001	2,079519615681077E-003	3,000000000000000E+000
2,8819546E-001	2,128248270040517E-003	3,000000000000000E+000
2,9216078E-001	2,202945494597468E-003	3,000000000000000E+000
2,9619509E-001	2,252528496481124E-003	3,000000000000000E+000
3,0019543E-001	2,319307015568484E-003	3,000000000000000E+000
3,0415332E-001	2,373297038839484E-003	3,000000000000000E+000
3,0811760E-001	2,433024531691672E-003	3,000000000000000E+000
3,1216994E-001	2,494970393955659E-003	3,000000000000000E+000
3,1614903E-001	2,567674449959746E-003	3,000000000000000E+000
3,2016319E-001	2,622076952657492E-003	3,000000000000000E+000
3,2415929E-001	2,692897025015011E-003	3,000000000000000E+000
3,2811618E-001	2,747999493968332E-003	3,000000000000000E+000
3,3214408E-001	2,818936017219028E-003	3,000000000000000E+000
3,3615926E-001	2,884842340319188E-003	3,000000000000000E+000
3,4013632E-001	2,945007620804026E-003	3,000000000000000E+000
3,4414089E-001	3,010256628234249E-003	3,000000000000000E+000
3,4813586E-001	3,087339331546868E-003	3,000000000000000E+000
3,5217550E-001	3,139974926684601E-003	3,000000000000000E+000
3,5612494E-001	3,208834217123993E-003	3,000000000000000E+000
3,6016241E-001	3,268418947333929E-003	3,000000000000000E+000
3,6366004E-001	3,245850680051024E-003	3,000000000000000E+000
3,5994810E-001	1,874957663757306E-003	3,000000000000000E+000
3,5593608E-001	1,592388538551009E-003	3,000000000000000E+000
3,5197395E-001	1,395130862133723E-003	3,000000000000000E+000
3,4798104E-001	1,210312798422011E-003	3,000000000000000E+000
3,4398809E-001	1,071246544328192E-003	3,000000000000000E+000
3,3997929E-001	9,388923389013620E-004	3,000000000000000E+000
3,3598527E-001	8,176041232622498E-004	3,000000000000000E+000
3,3194679E-001	6,966442690302041E-004	3,000000000000000E+000
3,2795277E-001	6,008573502050991E-004	3,000000000000000E+000
3,2395881E-001	4,984915715087714E-004	3,000000000000000E+000
3,1993511E-001	4,153850355174257E-004	3,000000000000000E+000
3,1590930E-001	3,152077885223070E-004	3,000000000000000E+000
3,1193972E-001	2,384957417702455E-004	3,000000000000000E+000
3,0797228E-001	1,600624783688121E-004	3,000000000000000E+000
3,0395919E-001	8,266807932797229E-005	3,000000000000000E+000
2,9999277E-001	9,420236932503112E-006	3,000000000000000E+000
2,9597551E-001	-5,480084351303397E-005	3,000000000000000E+000
2,9196241E-001	-1,196425254582426E-004	3,000000000000000E+000
2,8797796E-001	-1,761589544252546E-004	3,000000000000000E+000
2,8399143E-001	-2,411487439954608E-004	3,000000000000000E+000
2,7995393E-001	-2,880166291692755E-004	3,000000000000000E+000
2,7596527E-001	-3,378289187898386E-004	3,000000000000000E+000
2,7201477E-001	-3,990699344613947E-004	3,000000000000000E+000
2,6795501E-001	-4,510110579168995E-004	3,000000000000000E+000
2,6397482E-001	-4,967662392758662E-004	3,000000000000000E+000
2,5996602E-001	-5,517867838433525E-004	3,000000000000000E+000
2,5599641E-001	-5,918753940595363E-004	3,000000000000000E+000
2,5200561E-001	-6,399959495832219E-004	3,000000000000000E+000
2,4798726E-001	-6,785637587098728E-004	3,000000000000000E+000
2,4398053E-001	-7,231364134322909E-004	3,000000000000000E+000
2,3995367E-001	-7,614955231676664E-004	3,000000000000000E+000
2,3599999E-001	-8,077795318294466E-004	3,000000000000000E+000
2,3198904E-001	-8,326412335682779E-004	3,000000000000000E+000
2,2798340E-001	-8,804170855135560E-004	3,000000000000000E+000
2,2394910E-001	-9,060816814275684E-004	3,000000000000000E+000
2,1996573E-001	-9,480300371554514E-004	3,000000000000000E+000
2,1595690E-001	-9,750664392885033E-004	3,000000000000000E+000
2,1194805E-001	-1,007967376170671E-003	3,000000000000000E+000
2,0799994E-001	-1,040179761750185E-003	3,000000000000000E+000
2,0399722E-001	-1,077259770412366E-003	3,000000000000000E+000
1,9997035E-001	-1,103588648995225E-003	3,000000000000000E+000
1,9594562E-001	-1,140156100720768E-003	3,000000000000000E+000
1,9195695E-001	-1,159459964616909E-003	3,000000000000000E+000
1,8798949E-001	-1,199060574705341E-003	3,000000000000000E+000
1,8397024E-001	-1,223023845417354E-003	3,000000000000000E+000
1,7995062E-001	-1,257315861612027E-003	3,000000000000000E+000
1,7594603E-001	-1,270143275043534E-003	3,000000000000000E+000
1,7196159E-001	-1,307502039034496E-003	3,000000000000000E+000
1,6798140E-001	-1,328092884553673E-003	3,000000000000000E+000
1,6398530E-001	-1,359148827220821E-003	3,000000000000000E+000
1,5998463E-001	-1,379279219601348E-003	3,000000000000000E+000
1,5595172E-001	-1,406104314136661E-003	3,000000000000000E+000
1,5200336E-001	-1,431967472011888E-003	3,000000000000000E+000
1,4800937E-001	-1,449621566819222E-003	3,000000000000000E+000
1,4396977E-001	-1,477427290578979E-003	3,000000000000000E+000
1,3995351E-001	-1,509580004898863E-003	3,000000000000000E+000
1,3594469E-001	-1,530772210335943E-003	3,000000000000000E+000
1,3197404E-001	-1,558901420611181E-003	3,000000000000000E+000
1,2795036E-001	-1,578404662723184E-003	3,000000000000000E+000
1,2396381E-001	-1,606398644206045E-003	3,000000000000000E+000
1,1998891E-001	-1,616563617264744E-003	3,000000000000000E+000
1,1594402E-001	-1,653744499317663E-003	3,000000000000000E+000
1,1197656E-001	-1,669964514332135E-003	3,000000000000000E+000
1,0799635E-001	-1,695781364644601E-003	3,000000000000000E+000
1,0396313E-001	-1,708206432306691E-003	3,000000000000000E+000
9,9987186E-002	-1,736386517424963E-003	3,000000000000000E+000
9,6034579E-002	-1,754890823105114E-003	3,000000000000000E+000
9,1997109E-002	-1,781958995841841E-003	3,000000000000000E+000
8,7973423E-002	-1,804642101989076E-003	3,000000000000000E+000
8,4013380E-002	-1,818668385870602E-003	3,000000000000000E+000
7,9986528E-002	-1,844204077820509E-003	3,000000000000000E+000
7,5994663E-002	-1,872231780133141E-003	3,000000000000000E+000
7,1961433E-002	-1,887911069152984E-003	3,000000000000000E+000
6,7981236E-002	-1,914844673862083E-003	3,000000000000000E+000
6,4038582E-002	-1,933116719252823E-003	3,000000000000000E+000
6,6193759E-002	-9,161478923218678E-004	4,000000000000000E+000
7,0215322E-002	-7,035373501922682E-004	4,000000000000000E+000
7,4194454E-002	-5,560848917243507E-004	4,000000000000000E+000
7,8229807E-002	-4,355681447826242E-004	4,000000000000000E+000
8,2171805E-002	-3,404990632050074E-004	4,000000000000000E+000
8,6175546E-002	-2,439339372437947E-004	4,000000000000000E+000
9,0203255E-002	-1,658027063953156E-004	4,000000000000000E+000
9,4201490E-002	-7,883459896670811E-005	4,000000000000000E+000
9,8188028E-002	-1,167867898473955E-005	4,000000000000000E+000
1,0216080E-001	5,680524611051391E-005	4,000000000000000E+000
1,0617812E-001	1,148235679093231E-004	4,000000000000000E+000
1,1017210E-001	1,675639103613895E-004	4,000000000000000E+000
1,1416928E-001	2,225277217307192E-004	4,000000000000000E+000
1,1816749E-001	2,882064797139114E-004	4,000000000000000E+000
1,2220815E-001	3,233786018304943E-004	4,000000000000000E+000
1,2620637E-001	3,820054402690481E-004	4,000000000000000E+000
1,3018338E-001	4,271170233304611E-004	4,000000000000000E+000
1,3418478E-001	4,799829425960675E-004	4,000000000000000E+000
1,3813740E-001	5,223838416996956E-004	4,000000000000000E+000
1,4219820E-001	5,673691154057742E-004	4,000000000000000E+000
1,4618795E-001	6,086626249102514E-004	4,000000000000000E+000
1,5017450E-001	6,491913227364427E-004	4,000000000000000E+000
1,5418440E-001	6,871327540365112E-004	4,000000000000000E+000
1,5815715E-001	7,373157444548006E-004	4,000000000000000E+000
1,6218190E-001	7,712494286722538E-004	4,000000000000000E+000
1,6614088E-001	8,109551233280417E-004	4,000000000000000E+000
1,7016350E-001	8,497535912923623E-004	4,000000000000000E+000
1,7420202E-001	8,829322971535113E-004	4,000000000000000E+000
1,7813237E-001	9,237074815178804E-004	4,000000000000000E+000
1,8216136E-001	9,614010744337931E-004	4,000000000000000E+000
1,8622322E-001	9,938577716605279E-004	4,000000000000000E+000
1,9013020E-001	1,034157611111707E-003	4,000000000000000E+000
1,9419740E-001	1,068769612309685E-003	4,000000000000000E+000
1,9816272E-001	1,109391693413879E-003	4,000000000000000E+000
2,0217051E-001	1,143121767031349E-003	4,000000000000000E+000
2,0621222E-001	1,187321295556442E-003	4,000000000000000E+000
2,1017969E-001	1,222158118050883E-003	4,000000000000000E+000
2,1419063E-001	1,261932689009919E-003	4,000000000000000E+000
2,1815279E-001	1,294542422935287E-003	4,000000000000000E+000
2,2217329E-001	1,340637111786268E-003	4,000000000000000E+000
2,2615880E-001	1,376122320733780E-003	4,000000000000000E+000
2,3017186E-001	1,419259887943225E-003	4,000000000000000E+000
2,3418492E-001	1,462467389636141E-003	4,000000000000000E+000
2,3816301E-001	1,500312873961067E-003	4,000000000000000E+000
2,4218248E-001	1,545911405965279E-003	4,000000000000000E+000
2,4621037E-001	1,595622948284636E-003	4,000000000000000E+000
2,5022134E-001	1,626309162896144E-003	4,000000000000000E+000
2,5416860E-001	1,687297873744411E-003	4,000000000000000E+000
2,5818703E-001	1,728463038927180E-003	4,000000000000000E+000
2,6215976E-001	1,779205566250580E-003	4,000000000000000E+000
2,6617393E-001	1,828799003204847E-003	4,000000000000000E+000
2,7015197E-001	1,883786817618076E-003	4,000000000000000E+000
2,7417672E-001	1,931824391013599E-003	4,000000000000000E+000
2,7818447E-001	1,988756464992615E-003	4,000000000000000E+000
2,8216362E-001	2,047984862454347E-003	4,000000000000000E+000
2,8617990E-001	2,099570751414384E-003	4,000000000000000E+000
2,9014203E-001	2,154667096975683E-003	4,000000000000000E+000
2,9417104E-001	2,217875505771690E-003	4,000000000000000E+000
2,9817456E-001	2,278063373254278E-003	4,000000000000000E+000
3,0213991E-001	2,331773742399587E-003	4,000000000000000E+000
3,0619755E-001	2,398845947162168E-003	4,000000000000000E+000
3,1014907E-001	2,462015545730820E-003	4,000000000000000E+000
3,1415686E-001	2,517870557817832E-003	4,000000000000000E+000
3,1816569E-001	2,586485991573510E-003	4,000000000000000E+000
3,2213843E-001	2,647214150110152E-003	4,000000000000000E+000
3,2615998E-001	2,718978173409908E-003	4,000000000000000E+000
3,3015919E-001	2,780834792476511E-003	4,000000000000000E+000
3,3416072E-001	2,852299171704709E-003	4,000000000000000E+000
3,3817485E-001	2,911318553001544E-003	4,000000000000000E+000
3,4216774E-001	2,974793052729810E-003	4,000000000000000E+000
3,4616387E-001	3,036193002858290E-003	4,000000000000000E+000
3,5018221E-001	3,106767075088879E-003	4,000000000000000E+000
3,5416055E-001	3,169252592417363E-003	4,000000000000000E+000
3,5814473E-001	3,232960058893598E-003	4,000000000000000E+000
3,6213550E-001	3,290414064799213E-003	4,000000000000000E+000
3,6194667E-001	2,090909075007035E-003	4,000000000000000E+000
3,5799196E-001	1,709691534213364E-003	4,000000000000000E+000
3,5395774E-001	1,469728123851120E-003	4,000000000000000E+000
3,4996688E-001	1,286774620018182E-003	4,000000000000000E+000
3,4597713E-001	1,132410811907099E-003	4,000000000000000E+000
3,4192058E-001	9,855721440948824E-004	4,000000000000000E+000
3,3798918E-001	8,698812829000709E-004	4,000000000000000E+000
3,3391884E-001	7,380882875117492E-004	4,000000000000000E+000
3,2994542E-001	6,384359490412723E-004	4,000000000000000E+000
3,2594785E-001	5,376372176181541E-004	4,000000000000000E+000
3,2194117E-001	4,431217363263481E-004	4,000000000000000E+000
3,1793231E-001	3,539141383747078E-004	4,000000000000000E+000
3,1397969E-001	2,754621691332350E-004	4,000000000000000E+000
3,0997616E-001	1,895240819911074E-004	4,000000000000000E+000
3,0596945E-001	1,139313510993257E-004	4,000000000000000E+000
3,0200410E-001	4,736302672870164E-005	4,000000000000000E+000
2,9800692E-001	-2,908641373951298E-005	4,000000000000000E+000
2,9397583E-001	-9,854803798537695E-005	4,000000000000000E+000
2,8994155E-001	-1,563582774158618E-004	4,000000000000000E+000
2,8600803E-001	-2,189255096314790E-004	4,000000000000000E+000
2,8200132E-001	-2,715436793334072E-004	4,000000000000000E+000
2,7795959E-001	-3,366323729462294E-004	4,000000000000000E+000
2,7398896E-001	-3,790185621913031E-004	4,000000000000000E+000
2,6997268E-001	-4,362743589909879E-004	4,000000000000000E+000
2,6597980E-001	-4,820741905354650E-004	4,000000000000000E+000
2,6199108E-001	-5,399471885067634E-004	4,000000000000000E+000
2,5797060E-001	-5,809172425533379E-004	4,000000000000000E+000
2,5393206E-001	-6,308210448440607E-004	4,000000000000000E+000
2,4998902E-001	-6,636480207412726E-004	4,000000000000000E+000
2,4597381E-001	-7,154875914878837E-004	4,000000000000000E+000
2,4196500E-001	-7,570696708609380E-004	4,000000000000000E+000
2,3798797E-001	-7,880399654688411E-004	4,000000000000000E+000
2,3400034E-001	-8,225956533149427E-004	4,000000000000000E+000
2,2996287E-001	-8,653577644037345E-004	4,000000000000000E+000
2,2593601E-001	-9,031144067261337E-004	4,000000000000000E+000
2,2198236E-001	-9,390966759518188E-004	4,000000000000000E+000
2,1798307E-001	-9,730533916067676E-004	4,000000000000000E+000
2,1392012E-001	-1,007498966727229E-003	4,000000000000000E+000
2,0995691E-001	-1,029658853372830E-003	4,000000000000000E+000
2,0598203E-001	-1,069906893395393E-003	4,000000000000000E+000
2,0194456E-001	-1,097537807557574E-003	4,000000000000000E+000
1,9798027E-001	-1,128555305142609E-003	4,000000000000000E+000
1,9398101E-001	-1,154575167607553E-003	4,000000000000000E+000
1,8996049E-001	-1,191016541809033E-003	4,000000000000000E+000
1,8601954E-001	-1,204907108600578E-003	4,000000000000000E+000
1,8203087E-001	-1,241158829846732E-003	4,000000000000000E+000
1,7792974E-001	-1,266836567622331E-003	4,000000000000000E+000
1,7395061E-001	-1,289967009210224E-003	4,000000000000000E+000
1,7000861E-001	-1,320253087248632E-003	4,000000000000000E+000
1,6592234E-001	-1,354818032268668E-003	4,000000000000000E+000
1,6196656E-001	-1,374532772186077E-003	4,000000000000000E+000
1,5796410E-001	-1,403229500822445E-003	4,000000000000000E+000
1,5394785E-001	-1,422271011607437E-003	4,000000000000000E+000
1,4998461E-001	-1,454051886631298E-003	4,000000000000000E+000
1,4596517E-001	-1,471969087611396E-003	4,000000000000000E+000
1,4196694E-001	-1,500724474883296E-003	4,000000000000000E+000
1,3799100E-001	-1,521061479622776E-003	4,000000000000000E+000
1,3400339E-001	-1,551112507446235E-003	4,000000000000000E+000
1,2996167E-001	-1,568672093357974E-003	4,000000000000000E+000
1,2595919E-001	-1,595783821593845E-003	4,000000000000000E+000
1,2195567E-001	-1,612487386241642E-003	4,000000000000000E+000
1,1795533E-001	-1,649103086459006E-003	4,000000000000000E+000
1,1397832E-001	-1,664217871654761E-003	4,000000000000000E+000
1,0998116E-001	-1,681981973147400E-003	4,000000000000000E+000
1,0602006E-001	-1,708571981537340E-003	4,000000000000000E+000
1,0198258E-001	-1,735571257422984E-003	4,000000000000000E+000
9,7987540E-002	-1,748527061728840E-003	4,000000000000000E+000
9,3998872E-002	-1,776740971965611E-003	4,000000000000000E+000
8,9993216E-002	-1,792751128151496E-003	4,000000000000000E+000
8,5992880E-002	-1,821040366377459E-003	4,000000000000000E+000
8,2010567E-002	-1,834110546850645E-003	4,000000000000000E+000
7,8024007E-002	-1,863829962126647E-003	4,000000000000000E+000
7,3967442E-002	-1,874955212837509E-003	4,000000000000000E+000
6,9978759E-002	-1,910345237572789E-003	4,000000000000000E+000
6,5991141E-002	-1,917071456436700E-003	4,000000000000000E+000
6,4158052E-002	-1,120917856294708E-003	4,000000000000000E+000
6,8139307E-002	-8,029011013503686E-004	4,000000000000000E+000
7,2142832E-002	-6,323136730551826E-004	4,000000000000000E+000
7,6179244E-002	-4,965053713695648E-004	4,000000000000000E+000
8,0200814E-002	-3,957190479687362E-004	4,000000000000000E+000
8,4175691E-002	-2,973565735281366E-004	4,000000000000000E+000
8,8168606E-002	-2,060843491565097E-004	4,000000000000000E+000
9,2181690E-002	-1,224484187206873E-004	4,000000000000000E+000
9,6206442E-002	-5,371571618413595E-005	4,000000000000000E+000
1,0019405E-001	2,546430497014142E-005	4,000000000000000E+000
1,0418060E-001	7,983109246183565E-005	4,000000000000000E+000
1,0822126E-001	1,416807340582959E-004	4,000000000000000E+000
1,1216114E-001	1,972739854520750E-004	4,000000000000000E+000
1,1615299E-001	2,482707224650150E-004	4,000000000000000E+000
1,2017243E-001	2,980426309235882E-004	4,000000000000000E+000
1,2415263E-001	3,570933186009776E-004	4,000000000000000E+000
1,2817736E-001	3,968447249083806E-004	4,000000000000000E+000
1,3218196E-001	4,489703469432614E-004	4,000000000000000E+000
1,3615578E-001	4,826298258598788E-004	4,000000000000000E+000
1,4019325E-001	5,354177574527388E-004	4,000000000000000E+000
1,4417875E-001	5,722997502743974E-004	4,000000000000000E+000
1,4820985E-001	6,127819661169621E-004	4,000000000000000E+000
1,5214550E-001	6,546310998803342E-004	4,000000000000000E+000
1,5618297E-001	7,050262364053303E-004	4,000000000000000E+000
1,6014089E-001	7,391206510402731E-004	4,000000000000000E+000
1,6417411E-001	7,832668827042547E-004	4,000000000000000E+000
1,6817659E-001	8,162992527542372E-004	4,000000000000000E+000
1,7220876E-001	8,604044276715427E-004	4,000000000000000E+000
1,7614864E-001	8,916434011620464E-004	4,000000000000000E+000
1,8011929E-001	9,370905378697581E-004	4,000000000000000E+000
1,8415943E-001	9,636936343357730E-004	4,000000000000000E+000
1,8819316E-001	1,005870544893832E-003	4,000000000000000E+000
1,9218928E-001	1,041239387430126E-003	4,000000000000000E+000
1,9615139E-001	1,082127876240215E-003	4,000000000000000E+000
2,0015495E-001	1,113341337730632E-003	4,000000000000000E+000
2,0416804E-001	1,156070732476011E-003	4,000000000000000E+000
2,0822118E-001	1,188604968901420E-003	4,000000000000000E+000
2,1219209E-001	1,225948900187008E-003	4,000000000000000E+000
2,1616271E-001	1,266689158876907E-003	4,000000000000000E+000
2,2016621E-001	1,302571143174581E-003	4,000000000000000E+000
2,2416231E-001	1,342031445986960E-003	4,000000000000000E+000
2,2817221E-001	1,387497262907409E-003	4,000000000000000E+000
2,3219295E-001	1,424277210715526E-003	4,000000000000000E+000
2,3618883E-001	1,467463824088484E-003	4,000000000000000E+000
2,4016477E-001	1,502355507977036E-003	4,000000000000000E+000
2,4419163E-001	1,552451030336126E-003	4,000000000000000E+000
2,4820155E-001	1,591275542051769E-003	4,000000000000000E+000
2,4928258E-001	1,716178478091024E-003	4,000000000000000E+000