File: fig_si_ecsa/TiO2/100.txt
EC-Lab ASCII FILE
Ewe/V	<I>/mA	cycle number
6,5457575E-002	-5,856307595968246E-002	1,000000000000000E+000
7,0069991E-002	-7,681989729462629E-003	1,000000000000000E+000
7,4070342E-002	-4,423489757755288E-003	1,000000000000000E+000
8,1075989E-002	-2,615156258293096E-003	1,000000000000000E+000
8,5072085E-002	-1,874211016102992E-003	1,000000000000000E+000
9,0643272E-002	-5,002314080625996E-004	1,000000000000000E+000
9,6095055E-002	7,403339353307574E-004	1,000000000000000E+000
1,0005615E-001	1,217213034174675E-003	1,000000000000000E+000
1,0710529E-001	2,400317012062362E-003	1,000000000000000E+000
1,1107381E-001	2,277837083763907E-003	1,000000000000000E+000
1,1506991E-001	2,448800673745508E-003	1,000000000000000E+000
1,1906070E-001	2,554683102264095E-003	1,000000000000000E+000
1,2302286E-001	2,778072514047381E-003	1,000000000000000E+000
1,2707412E-001	2,970436851278978E-003	1,000000000000000E+000
1,3108084E-001	3,339501827415218E-003	1,000000000000000E+000
1,3508648E-001	3,411280342334080E-003	1,000000000000000E+000
1,3905288E-001	3,686239546570706E-003	1,000000000000000E+000
1,4308400E-001	3,731592847543663E-003	1,000000000000000E+000
1,4704615E-001	4,012444590949203E-003	1,000000000000000E+000
1,5103908E-001	4,053272229308888E-003	1,000000000000000E+000
1,5505004E-001	4,204658612757664E-003	1,000000000000000E+000
1,5908962E-001	4,279204505615378E-003	1,000000000000000E+000
1,6306555E-001	4,465817926555047E-003	1,000000000000000E+000
1,6709669E-001	4,522546193281126E-003	1,000000000000000E+000
1,7103657E-001	4,751785972378755E-003	1,000000000000000E+000
1,7504220E-001	4,902457665593829E-003	1,000000000000000E+000
1,7904893E-001	5,040233172621852E-003	1,000000000000000E+000
1,8306625E-001	4,999585650592872E-003	1,000000000000000E+000
1,8705384E-001	5,081734959983597E-003	1,000000000000000E+000
1,9108920E-001	5,164644578649659E-003	1,000000000000000E+000
1,9504924E-001	5,472869246457589E-003	1,000000000000000E+000
1,9909626E-001	5,469693134525902E-003	1,000000000000000E+000
2,0307326E-001	5,773830793057454E-003	1,000000000000000E+000
2,0710756E-001	5,705616020552261E-003	1,000000000000000E+000
2,1111003E-001	5,901929620045460E-003	1,000000000000000E+000
2,1504246E-001	5,844184121087906E-003	1,000000000000000E+000
2,1902904E-001	6,011166760193504E-003	1,000000000000000E+000
2,2304529E-001	6,092006955441320E-003	1,000000000000000E+000
2,2705838E-001	6,252552267445338E-003	1,000000000000000E+000
2,3107249E-001	6,231231286720776E-003	1,000000000000000E+000
2,3506118E-001	6,491426717224788E-003	1,000000000000000E+000
2,3907532E-001	6,620407771050760E-003	1,000000000000000E+000
2,4307990E-001	6,752563248786245E-003	1,000000000000000E+000
2,4711101E-001	6,709385070684637E-003	1,000000000000000E+000
2,5109226E-001	6,831679126561435E-003	1,000000000000000E+000
2,5505868E-001	6,917191856498722E-003	1,000000000000000E+000
2,5907493E-001	7,168069393325566E-003	1,000000000000000E+000
2,6306888E-001	7,147075090971296E-003	1,000000000000000E+000
2,6709154E-001	7,422701099535023E-003	1,000000000000000E+000
2,7106640E-001	7,491708329730014E-003	1,000000000000000E+000
2,7507314E-001	7,701969818299424E-003	1,000000000000000E+000
2,7909258E-001	7,791489753193083E-003	1,000000000000000E+000
2,8308228E-001	8,078750319125742E-003	1,000000000000000E+000
2,8707731E-001	8,085790762884737E-003	1,000000000000000E+000
2,9106498E-001	8,276093469046675E-003	1,000000000000000E+000
2,9509392E-001	8,339983688428143E-003	1,000000000000000E+000
2,9905820E-001	8,605379582958385E-003	1,000000000000000E+000
3,0306706E-001	8,772692262330878E-003	1,000000000000000E+000
3,0703664E-001	8,918775569731641E-003	1,000000000000000E+000
3,1104121E-001	8,988269980667041E-003	1,000000000000000E+000
3,1505111E-001	9,189998829646800E-003	1,000000000000000E+000
3,1907162E-001	9,308644567984962E-003	1,000000000000000E+000
3,2304972E-001	9,627401273367808E-003	1,000000000000000E+000
3,2701927E-001	9,743051650326007E-003	1,000000000000000E+000
3,3106413E-001	1,005137442229583E-002	1,000000000000000E+000
3,3505711E-001	1,008360638661549E-002	1,000000000000000E+000
3,3910728E-001	1,040453748121060E-002	1,000000000000000E+000
3,4307155E-001	1,051220136448852E-002	1,000000000000000E+000
3,4704223E-001	1,076563044625800E-002	1,000000000000000E+000
3,5402983E-001	1,088143854334098E-002	1,000000000000000E+000
3,5804820E-001	1,129063651347276E-002	1,000000000000000E+000
3,6200398E-001	1,141206260460121E-002	1,000000000000000E+000
3,6305422E-001	3,161284687798298E-003	1,000000000000000E+000
3,5902628E-001	1,262115476695021E-003	1,000000000000000E+000
3,5509592E-001	3,447179455583378E-004	1,000000000000000E+000
3,5109881E-001	-3,354692484991663E-004	1,000000000000000E+000
3,4706873E-001	-8,433680790807981E-004	1,000000000000000E+000
3,4012565E-001	-1,241784096085512E-003	1,000000000000000E+000
3,3608502E-001	-1,857839087885312E-003	1,000000000000000E+000
3,3199558E-001	-2,044211929286457E-003	1,000000000000000E+000
3,2805991E-001	-2,458810812741922E-003	1,000000000000000E+000
3,2407126E-001	-2,618921160521696E-003	1,000000000000000E+000
3,2005504E-001	-2,974619548695032E-003	1,000000000000000E+000
3,1605360E-001	-3,038629141075125E-003	1,000000000000000E+000
3,1207022E-001	-3,234029817475753E-003	1,000000000000000E+000
3,0809534E-001	-3,275069931381335E-003	1,000000000000000E+000
3,0404726E-001	-3,516146039449566E-003	1,000000000000000E+000
3,0007449E-001	-3,643208115641366E-003	1,000000000000000E+000
2,9609957E-001	-3,857986844094635E-003	1,000000000000000E+000
2,9205152E-001	-3,843532594045310E-003	1,000000000000000E+000
2,8810316E-001	-4,045572706268562E-003	1,000000000000000E+000
2,8409538E-001	-4,117436507335162E-003	1,000000000000000E+000
2,8007168E-001	-4,413490034494302E-003	1,000000000000000E+000
2,7609047E-001	-4,263119019419212E-003	1,000000000000000E+000
2,7206674E-001	-4,478974395978080E-003	1,000000000000000E+000
2,6808020E-001	-4,497662303037935E-003	1,000000000000000E+000
2,6406077E-001	-4,718259004019062E-003	1,000000000000000E+000
2,6009434E-001	-4,760839387421958E-003	1,000000000000000E+000
2,5612795E-001	-4,911056884237847E-003	1,000000000000000E+000
2,5210637E-001	-4,938348664533471E-003	1,000000000000000E+000
2,4808803E-001	-5,041546342302666E-003	1,000000000000000E+000
2,4413222E-001	-5,010148332884351E-003	1,000000000000000E+000
2,4007991E-001	-5,208995647181920E-003	1,000000000000000E+000
2,3611459E-001	-5,228031982874699E-003	1,000000000000000E+000
2,3212804E-001	-5,420325727350732E-003	1,000000000000000E+000
2,2812025E-001	-5,349758383494607E-003	1,000000000000000E+000
2,2409761E-001	-5,530749434708719E-003	1,000000000000000E+000
2,2006334E-001	-5,550017571092907E-003	1,000000000000000E+000
2,1607785E-001	-5,717412003125179E-003	1,000000000000000E+000
2,1208917E-001	-5,569287387819089E-003	1,000000000000000E+000
2,0808245E-001	-5,846704484510051E-003	1,000000000000000E+000
2,0408529E-001	-5,783052059187929E-003	1,000000000000000E+000
2,0005099E-001	-6,028922931970229E-003	1,000000000000000E+000
1,9608352E-001	-6,038667231930736E-003	1,000000000000000E+000
1,9209486E-001	-6,172113903933948E-003	1,000000000000000E+000
1,8808709E-001	-6,060667765268559E-003	1,000000000000000E+000
1,8406977E-001	-6,152469186215763E-003	1,000000000000000E+000
1,8009807E-001	-6,223718936881700E-003	1,000000000000000E+000
1,7605212E-001	-6,519206901834378E-003	1,000000000000000E+000
1,7209418E-001	-6,529676162446964E-003	1,000000000000000E+000
1,6810656E-001	-6,602623852813856E-003	1,000000000000000E+000
1,6409349E-001	-6,522349346697501E-003	1,000000000000000E+000
1,6010800E-001	-6,652677833901367E-003	1,000000000000000E+000
1,5607901E-001	-6,629156566001854E-003	1,000000000000000E+000
1,5205321E-001	-6,791500504025133E-003	1,000000000000000E+000
1,4813244E-001	-6,677042405903597E-003	1,000000000000000E+000
1,4411616E-001	-6,916275942785433E-003	1,000000000000000E+000
1,4008823E-001	-6,892210364134756E-003	1,000000000000000E+000
1,3611440E-001	-7,127938290068397E-003	1,000000000000000E+000
1,3211513E-001	-7,139416250235342E-003	1,000000000000000E+000
1,2808719E-001	-7,273212605569908E-003	1,000000000000000E+000
1,2409429E-001	-7,154005972147909E-003	1,000000000000000E+000
1,2007061E-001	-7,261363727997794E-003	1,000000000000000E+000
1,1611164E-001	-7,265813474481936E-003	1,000000000000000E+000
1,1207946E-001	-7,517910627535040E-003	1,000000000000000E+000
1,0811306E-001	-7,567453852162620E-003	1,000000000000000E+000
1,0407771E-001	-7,644978163928770E-003	1,000000000000000E+000
1,0012934E-001	-7,609509035117097E-003	1,000000000000000E+000
9,6139610E-002	-7,731877595587203E-003	1,000000000000000E+000
9,2103191E-002	-7,728338947344995E-003	1,000000000000000E+000
8,8126175E-002	-7,932168483320186E-003	1,000000000000000E+000
8,4119469E-002	-7,831774491124682E-003	1,000000000000000E+000
8,0131859E-002	-8,026691937023558E-003	1,000000000000000E+000
7,6133624E-002	-7,974513938178329E-003	1,000000000000000E+000
7,2103582E-002	-8,146105463513062E-003	1,000000000000000E+000
6,8088382E-002	-8,161942147934392E-003	1,000000000000000E+000
6,4112440E-002	-8,289609657367664E-003	1,000000000000000E+000
6,5505289E-002	-2,225348031061000E-003	2,000000000000000E+000
6,9298781E-002	-9,726857811895376E-004	2,000000000000000E+000
7,3256694E-002	1,612385416223105E-004	2,000000000000000E+000
7,7283561E-002	9,589956636975561E-004	2,000000000000000E+000
8,1293449E-002	1,425783136659853E-003	2,000000000000000E+000
8,5270457E-002	1,804753644036192E-003	2,000000000000000E+000
8,9295208E-002	2,088312924267186E-003	2,000000000000000E+000
9,3299799E-002	2,259143961459313E-003	2,000000000000000E+000
9,7275741E-002	2,303192076295903E-003	2,000000000000000E+000
1,0131640E-001	2,576347421684961E-003	2,000000000000000E+000
1,0528491E-001	2,774864383455797E-003	2,000000000000000E+000
1,0929058E-001	2,917249006713994E-003	2,000000000000000E+000
1,1328561E-001	3,193270955913860E-003	2,000000000000000E+000
1,1726580E-001	3,311136880963926E-003	2,000000000000000E+000
1,2126508E-001	3,408385282657231E-003	2,000000000000000E+000
1,2523359E-001	3,455984814233190E-003	2,000000000000000E+000
1,2924986E-001	3,731833217089954E-003	2,000000000000000E+000
1,3331702E-001	3,836207178917694E-003	2,000000000000000E+000
1,3728873E-001	3,931020487572018E-003	2,000000000000000E+000
1,4128697E-001	4,040598739973394E-003	2,000000000000000E+000
1,4527351E-001	4,207848746268131E-003	2,000000000000000E+000
1,4928024E-001	4,386312932587733E-003	2,000000000000000E+000
1,5325193E-001	4,501364835757873E-003	2,000000000000000E+000
1,5727986E-001	4,534368730269800E-003	2,000000000000000E+000
1,6126747E-001	4,515477655837083E-003	2,000000000000000E+000
1,6527101E-001	4,651994065675874E-003	2,000000000000000E+000
1,6927665E-001	4,794226466603716E-003	2,000000000000000E+000
1,7327274E-001	4,950536326860974E-003	2,000000000000000E+000
1,7725508E-001	5,135460768441482E-003	2,000000000000000E+000
1,8126391E-001	5,092538929602621E-003	2,000000000000000E+000
1,8526955E-001	5,222777557113090E-003	2,000000000000000E+000
1,8925717E-001	5,287404296622222E-003	2,000000000000000E+000
1,9325647E-001	5,459694001425916E-003	2,000000000000000E+000
1,9725361E-001	5,482592919886689E-003	2,000000000000000E+000
2,0127729E-001	5,621847102803362E-003	2,000000000000000E+000
2,0523098E-001	5,670433068897002E-003	2,000000000000000E+000
2,0924725E-001	5,803320620341564E-003	2,000000000000000E+000
2,1327621E-001	5,972565313843242E-003	2,000000000000000E+000
2,1727869E-001	6,064596748021581E-003	2,000000000000000E+000
2,2126631E-001	6,120004274837103E-003	2,000000000000000E+000
2,2524649E-001	6,083290243016876E-003	2,000000000000000E+000
2,2925638E-001	6,237184124377886E-003	2,000000000000000E+000
2,3329705E-001	6,382704296104033E-003	2,000000000000000E+000
2,3726346E-001	6,553848258691803E-003	2,000000000000000E+000
2,4129984E-001	6,700648860310653E-003	2,000000000000000E+000
2,4529384E-001	6,755739423371996E-003	2,000000000000000E+000
2,4925175E-001	6,863118225737715E-003	2,000000000000000E+000
2,5329772E-001	6,889081784821532E-003	2,000000000000000E+000
2,5723970E-001	6,986308853407165E-003	2,000000000000000E+000
2,6127613E-001	7,138975567714742E-003	2,000000000000000E+000
2,6524040E-001	7,277982146964262E-003	2,000000000000000E+000
2,6925558E-001	7,391753983635369E-003	2,000000000000000E+000
2,7326655E-001	7,587929329424176E-003	2,000000000000000E+000
2,7723828E-001	7,753318436799536E-003	2,000000000000000E+000
2,8123647E-001	7,882001944785277E-003	2,000000000000000E+000
2,8529939E-001	8,012282784168059E-003	2,000000000000000E+000
2,8925520E-001	7,995364832620727E-003	2,000000000000000E+000
2,9323858E-001	8,178728051360773E-003	2,000000000000000E+000
2,9726115E-001	8,414354172903919E-003	2,000000000000000E+000
3,0125308E-001	8,574505990610409E-003	2,000000000000000E+000
3,0525306E-001	8,859264968398783E-003	2,000000000000000E+000
3,0924842E-001	8,944917289126275E-003	2,000000000000000E+000
3,1323817E-001	9,134809357217638E-003	2,000000000000000E+000
3,1721520E-001	9,239488982226873E-003	2,000000000000000E+000
3,2126752E-001	9,387524417737353E-003	2,000000000000000E+000
3,2523921E-001	9,613928206413755E-003	2,000000000000000E+000
3,2920983E-001	9,781825506555278E-003	2,000000000000000E+000
3,3326328E-001	9,958777473204679E-003	2,000000000000000E+000
3,3722752E-001	1,018227973610111E-002	2,000000000000000E+000
3,4124586E-001	1,041745484528501E-002	2,000000000000000E+000
3,4528869E-001	1,059387463141728E-002	2,000000000000000E+000
3,4926677E-001	1,075220052492420E-002	2,000000000000000E+000
3,5627133E-001	1,107937037078149E-002	2,000000000000000E+000
3,6022502E-001	1,125088064549752E-002	2,000000000000000E+000
3,6354548E-001	1,139740273356438E-002	2,000000000000000E+000
3,6108854E-001	1,863161821953938E-003	2,000000000000000E+000
3,5703403E-001	6,823444452442803E-004	2,000000000000000E+000
3,5306978E-001	-1,216765179713565E-005	2,000000000000000E+000
3,4907478E-001	-6,557466680432206E-004	2,000000000000000E+000
3,4510940E-001	-1,220874630790703E-003	2,000000000000000E+000
3,3806345E-001	-1,555300132470922E-003	2,000000000000000E+000
3,3407477E-001	-2,018610966842967E-003	2,000000000000000E+000
3,3010304E-001	-2,371340322699526E-003	2,000000000000000E+000
3,2610059E-001	-2,663957912874238E-003	2,000000000000000E+000
3,2205677E-001	-2,866103931915442E-003	2,000000000000000E+000
3,1803203E-001	-2,986698575518344E-003	2,000000000000000E+000
3,1407943E-001	-3,111325450744410E-003	2,000000000000000E+000
3,1010878E-001	-3,313342104067685E-003	2,000000000000000E+000
3,0610752E-001	-3,527333823430207E-003	2,000000000000000E+000
3,0204865E-001	-3,532186421176045E-003	2,000000000000000E+000
2,9809183E-001	-3,836823024660894E-003	2,000000000000000E+000
2,9405114E-001	-3,896435942604308E-003	2,000000000000000E+000
2,9010174E-001	-4,087867027313521E-003	2,000000000000000E+000
2,8611094E-001	-4,140226912568309E-003	2,000000000000000E+000
2,8207344E-001	-4,376004753592275E-003	2,000000000000000E+000
2,7805826E-001	-4,408133493901290E-003	2,000000000000000E+000
2,7407065E-001	-4,508597147327639E-003	2,000000000000000E+000
2,7009365E-001	-4,506165578075295E-003	2,000000000000000E+000
2,6607633E-001	-4,701157891961155E-003	2,000000000000000E+000
2,6211733E-001	-4,800234785054452E-003	2,000000000000000E+000
2,5810745E-001	-4,943144609973783E-003	2,000000000000000E+000
2,5408909E-001	-4,918688155561943E-003	2,000000000000000E+000
2,5010994E-001	-4,993707898797248E-003	2,000000000000000E+000
2,4610326E-001	-5,096849347157498E-003	2,000000000000000E+000
2,4207534E-001	-5,247501783338104E-003	2,000000000000000E+000
2,3806331E-001	-5,200522777967176E-003	2,000000000000000E+000
2,3408736E-001	-5,394860815108080E-003	2,000000000000000E+000
2,3005623E-001	-5,327901780724951E-003	2,000000000000000E+000
2,2611637E-001	-5,508952613227910E-003	2,000000000000000E+000
2,2208312E-001	-5,561067246566782E-003	2,000000000000000E+000
2,1812521E-001	-5,723554643433677E-003	2,000000000000000E+000
2,1408881E-001	-5,731954969734124E-003	2,000000000000000E+000
2,1014574E-001	-5,796860830741921E-003	2,000000000000000E+000
2,0609340E-001	-5,777421522604215E-003	2,000000000000000E+000
2,0207714E-001	-5,969632129967470E-003	2,000000000000000E+000
1,9809803E-001	-6,085287137668455E-003	2,000000000000000E+000
1,9410828E-001	-6,217856362329438E-003	2,000000000000000E+000
1,9008672E-001	-6,148318383768323E-003	2,000000000000000E+000
1,8610655E-001	-6,091970171837602E-003	2,000000000000000E+000
1,8206908E-001	-6,219046367833533E-003	2,000000000000000E+000
1,7809843E-001	-6,419959756991944E-003	2,000000000000000E+000
1,7404714E-001	-6,434178332710865E-003	2,000000000000000E+000
1,7005424E-001	-6,531152811981460E-003	2,000000000000000E+000
1,6604328E-001	-6,505081354892660E-003	2,000000000000000E+000
1,6210659E-001	-6,697911355230530E-003	2,000000000000000E+000
1,5806806E-001	-6,665448332367097E-003	2,000000000000000E+000
1,5411757E-001	-6,721198848228777E-003	2,000000000000000E+000
1,5006523E-001	-6,805659524818278E-003	2,000000000000000E+000
1,4608081E-001	-6,916753696310035E-003	2,000000000000000E+000
1,4205712E-001	-6,913971938047325E-003	2,000000000000000E+000
1,3809709E-001	-7,065285261584592E-003	2,000000000000000E+000
1,3412219E-001	-7,191351881677605E-003	2,000000000000000E+000
1,3007942E-001	-7,288092950653260E-003	2,000000000000000E+000
1,2610136E-001	-7,233787127107552E-003	2,000000000000000E+000
1,2205116E-001	-7,182219282387631E-003	2,000000000000000E+000
1,1810279E-001	-7,294680736473880E-003	2,000000000000000E+000
1,1408334E-001	-7,476796434881770E-003	2,000000000000000E+000
1,1007876E-001	-7,479693064346510E-003	2,000000000000000E+000
1,0610493E-001	-7,636095298544678E-003	2,000000000000000E+000
1,0208444E-001	-7,680070662091643E-003	2,000000000000000E+000
9,8056503E-002	-7,795565171060503E-003	2,000000000000000E+000
9,4101772E-002	-7,750717496188938E-003	2,000000000000000E+000
9,0116270E-002	-7,871621968256970E-003	2,000000000000000E+000
8,6074561E-002	-7,934474965117622E-003	2,000000000000000E+000
8,2109213E-002	-8,045446758236097E-003	2,000000000000000E+000
7,8068569E-002	-8,025786616296174E-003	2,000000000000000E+000
7,4104287E-002	-8,139496796098267E-003	2,000000000000000E+000
7,0113480E-002	-8,221373342773147E-003	2,000000000000000E+000
6,6085562E-002	-8,345375566730359E-003	2,000000000000000E+000
6,3471727E-002	-7,756806444376707E-003	3,000000000000000E+000
6,7394614E-002	-1,605244671572508E-003	3,000000000000000E+000
7,1298420E-002	-5,111507321784187E-004	3,000000000000000E+000
7,5232998E-002	6,753036757092780E-004	3,000000000000000E+000
7,9241827E-002	1,058801432716589E-003	3,000000000000000E+000
8,3259150E-002	1,644821950422841E-003	3,000000000000000E+000
8,7277524E-002	1,896797439763359E-003	3,000000000000000E+000
9,1331981E-002	2,246108220586206E-003	3,000000000000000E+000
9,5299438E-002	2,239759368724972E-003	3,000000000000000E+000
9,9299781E-002	2,461280956494095E-003	3,000000000000000E+000
1,0326087E-001	2,529379224951210E-003	3,000000000000000E+000
1,0731745E-001	2,903562497724332E-003	3,000000000000000E+000
1,1129126E-001	3,018899430268604E-003	3,000000000000000E+000
1,1528526E-001	3,297020378441734E-003	3,000000000000000E+000
1,1928137E-001	3,250278821724361E-003	3,000000000000000E+000
1,2322123E-001	3,454649662267509E-003	3,000000000000000E+000
1,2726401E-001	3,557262116171647E-003	3,000000000000000E+000
1,3129194E-001	3,880953948990087E-003	3,000000000000000E+000
1,3531245E-001	3,720451334528568E-003	3,000000000000000E+000
1,3926610E-001	4,017804785689822E-003	3,000000000000000E+000
1,4324312E-001	4,044243988270586E-003	3,000000000000000E+000
1,4731349E-001	4,279257716714520E-003	3,000000000000000E+000
1,5126926E-001	4,294486324700621E-003	3,000000000000000E+000
1,5525794E-001	4,486139797841668E-003	3,000000000000000E+000
1,5924768E-001	4,480400739945864E-003	3,000000000000000E+000
1,6328725E-001	4,630609528248904E-003	3,000000000000000E+000
1,6726109E-001	4,646598550607450E-003	3,000000000000000E+000
1,7126463E-001	4,914235990226098E-003	3,000000000000000E+000
1,7530531E-001	5,007450467625570E-003	3,000000000000000E+000
1,7924941E-001	5,167145394807490E-003	3,000000000000000E+000
1,8327309E-001	5,051187676953223E-003	3,000000000000000E+000
1,8726498E-001	5,200006219335307E-003	3,000000000000000E+000
1,9123985E-001	5,247718477120453E-003	3,000000000000000E+000
1,9527730E-001	5,493294157026374E-003	3,000000000000000E+000
1,9927131E-001	5,414514034378565E-003	3,000000000000000E+000
2,0326315E-001	5,691520919046768E-003	3,000000000000000E+000
2,0727833E-001	5,629085506370771E-003	3,000000000000000E+000
2,1126704E-001	5,830730764298824E-003	3,000000000000000E+000
2,1524298E-001	5,877339871302789E-003	3,000000000000000E+000
2,1926348E-001	6,068929738022338E-003	3,000000000000000E+000
2,2331260E-001	6,032054625393343E-003	3,000000000000000E+000
2,2728433E-001	6,224419166553891E-003	3,000000000000000E+000
2,3126876E-001	6,286157483070140E-003	3,000000000000000E+000
2,3525317E-001	6,529242768010611E-003	3,000000000000000E+000
2,3925142E-001	6,584997211272516E-003	3,000000000000000E+000
2,4325921E-001	6,742313025622753E-003	3,000000000000000E+000
2,4730831E-001	6,688592536698335E-003	3,000000000000000E+000
2,5126940E-001	6,800917619127905E-003	3,000000000000000E+000
2,5529948E-001	6,882789040294802E-003	3,000000000000000E+000
2,5928071E-001	7,120650385331828E-003	3,000000000000000E+000
2,6323968E-001	7,064673442881864E-003	3,000000000000000E+000
2,6725915E-001	7,403947974024827E-003	3,000000000000000E+000
2,7132100E-001	7,423076172724724E-003	3,000000000000000E+000
2,7523118E-001	7,693956893894627E-003	3,000000000000000E+000
2,7923682E-001	7,717804870076672E-003	3,000000000000000E+000
2,8327426E-001	8,026469825482441E-003	3,000000000000000E+000
2,8727570E-001	7,963344301970224E-003	3,000000000000000E+000
2,9124108E-001	8,153330405346257E-003	3,000000000000000E+000
2,9529017E-001	8,213021164313772E-003	3,000000000000000E+000
2,9929799E-001	8,551971782354631E-003	3,000000000000000E+000
3,0322829E-001	8,668524008600034E-003	3,000000000000000E+000
3,0726472E-001	8,852417474877840E-003	3,000000000000000E+000
3,1126827E-001	8,933093220144267E-003	3,000000000000000E+000
3,1524417E-001	9,145558656503766E-003	3,000000000000000E+000
3,1918299E-001	9,207689756294685E-003	3,000000000000000E+000
3,2318446E-001	9,537341249395301E-003	3,000000000000000E+000
3,2726216E-001	9,586138319314680E-003	3,000000000000000E+000
3,3125088E-001	9,946587319265940E-003	3,000000000000000E+000
3,3528519E-001	9,921513469534095E-003	3,000000000000000E+000
3,3927807E-001	1,027054258722482E-002	3,000000000000000E+000
3,4326145E-001	1,034455554973752E-002	3,000000000000000E+000
3,4725121E-001	1,068288714385646E-002	3,000000000000000E+000
3,5123456E-001	1,076363706508554E-002	3,000000000000000E+000
3,5825184E-001	1,113035614980619E-002	3,000000000000000E+000
3,6221725E-001	1,135872490461530E-002	3,000000000000000E+000
3,6309984E-001	3,046101516904161E-003	3,000000000000000E+000
3,5903472E-001	1,211447719773179E-003	3,000000000000000E+000
3,5506836E-001	1,540724197022474E-004	3,000000000000000E+000
3,5109457E-001	-4,514305622996691E-004	3,000000000000000E+000
3,4406027E-001	-1,441802555847152E-003	3,000000000000000E+000
3,4006944E-001	-1,594354188354265E-003	3,000000000000000E+000
3,3607441E-001	-2,049406104358945E-003	3,000000000000000E+000
3,3203483E-001	-2,175988907563601E-003	3,000000000000000E+000
3,2804933E-001	-2,611012356283027E-003	3,000000000000000E+000
3,2406169E-001	-2,732517701588208E-003	3,000000000000000E+000
3,2005712E-001	-3,011202956460891E-003	3,000000000000000E+000
3,1606311E-001	-3,062935320283733E-003	3,000000000000000E+000
3,1203625E-001	-3,234813318461725E-003	3,000000000000000E+000
3,0805501E-001	-3,307771315222544E-003	3,000000000000000E+000
3,0406103E-001	-3,615516810694108E-003	3,000000000000000E+000
3,0006707E-001	-3,785371705816942E-003	3,000000000000000E+000
2,9606774E-001	-4,001377687220364E-003	3,000000000000000E+000
2,9205790E-001	-3,992591808330156E-003	3,000000000000000E+000
2,8811377E-001	-4,137392309833843E-003	3,000000000000000E+000
2,8412402E-001	-4,185470916935524E-003	3,000000000000000E+000
2,8004837E-001	-4,460155876990418E-003	3,000000000000000E+000
2,7604380E-001	-4,360449024210915E-003	3,000000000000000E+000
2,7208054E-001	-4,607263916113866E-003	3,000000000000000E+000
2,6806641E-001	-4,585030488669866E-003	3,000000000000000E+000
2,6406077E-001	-4,815018105647245E-003	3,000000000000000E+000
2,6008162E-001	-4,861970232418050E-003	3,000000000000000E+000
2,5607705E-001	-4,995787843250166E-003	3,000000000000000E+000
2,5208414E-001	-4,964002759758522E-003	3,000000000000000E+000
2,4806894E-001	-5,101902032846620E-003	3,000000000000000E+000
2,4409194E-001	-5,110974062618963E-003	3,000000000000000E+000
2,4004914E-001	-5,339473134275359E-003	3,000000000000000E+000
2,3609126E-001	-5,355437479011016E-003	3,000000000000000E+000
2,3205167E-001	-5,530496871263779E-003	3,000000000000000E+000
2,2807994E-001	-5,408278490196816E-003	3,000000000000000E+000
2,2407533E-001	-5,592150475018154E-003	3,000000000000000E+000
2,2010790E-001	-5,588445246960151E-003	3,000000000000000E+000
2,1606722E-001	-5,826204034545080E-003	3,000000000000000E+000
2,1208280E-001	-5,720238229615550E-003	3,000000000000000E+000
2,0805593E-001	-5,929965864601774E-003	3,000000000000000E+000
2,0406301E-001	-5,832874580745613E-003	3,000000000000000E+000
2,0006160E-001	-6,076649586450183E-003	3,000000000000000E+000
1,9608036E-001	-6,091450630467260E-003	3,000000000000000E+000
1,9207577E-001	-6,217451365147168E-003	3,000000000000000E+000
1,8810618E-001	-6,085000504147783E-003	3,000000000000000E+000
1,8407613E-001	-6,257044566559164E-003	3,000000000000000E+000
1,8009064E-001	-6,321761443056559E-003	3,000000000000000E+000
1,7607121E-001	-6,536530875261320E-003	3,000000000000000E+000
1,7210481E-001	-6,514696946396698E-003	3,000000000000000E+000
1,6809064E-001	-6,593887382526475E-003	3,000000000000000E+000
1,6409457E-001	-6,564416622697730E-003	3,000000000000000E+000
1,6009635E-001	-6,684187308160785E-003	3,000000000000000E+000
1,5611295E-001	-6,733859525815601E-003	3,000000000000000E+000
1,5206912E-001	-6,927741329289132E-003	3,000000000000000E+000
1,4807621E-001	-6,798666552640491E-003	3,000000000000000E+000
1,4406523E-001	-6,980055657347981E-003	3,000000000000000E+000
1,4008717E-001	-7,004469707478866E-003	3,000000000000000E+000
1,3610488E-001	-7,171926529635020E-003	3,000000000000000E+000
1,3213636E-001	-7,171024772105711E-003	3,000000000000000E+000
1,2806174E-001	-7,326400789477484E-003	3,000000000000000E+000
1,2404442E-001	-7,224531103323287E-003	3,000000000000000E+000
1,2008864E-001	-7,348565499139786E-003	3,000000000000000E+000
1,1613709E-001	-7,339167285358092E-003	3,000000000000000E+000
1,1209537E-001	-7,576874785526225E-003	3,000000000000000E+000
1,0804518E-001	-7,581576844030574E-003	3,000000000000000E+000
1,0405224E-001	-7,704530931126385E-003	3,000000000000000E+000
1,0012191E-001	-7,685064728624000E-003	3,000000000000000E+000
9,6126877E-002	-7,813388346726735E-003	3,000000000000000E+000
9,2111677E-002	-7,794827841280508E-003	3,000000000000000E+000
8,8126190E-002	-7,973301027151172E-003	3,000000000000000E+000
8,4051579E-002	-7,873877182040148E-003	3,000000000000000E+000
8,0074579E-002	-8,108376325657807E-003	3,000000000000000E+000
7,6121956E-002	-8,020875773379663E-003	3,000000000000000E+000
7,2064333E-002	-8,255576618668957E-003	3,000000000000000E+000
6,8120211E-002	-8,269299985840875E-003	3,000000000000000E+000
6,4057276E-002	-8,370650306460420E-003	3,000000000000000E+000
6,5479830E-002	-2,247592425798446E-003	4,000000000000000E+000
6,9308326E-002	-9,672794535112578E-004	4,000000000000000E+000
7,3290639E-002	1,870729499131589E-004	4,000000000000000E+000
7,7232637E-002	9,570980107835372E-004	4,000000000000000E+000
8,1277534E-002	1,407845225609595E-003	4,000000000000000E+000
8,5276820E-002	1,759083623760999E-003	4,000000000000000E+000
8,9280359E-002	2,011471191609527E-003	4,000000000000000E+000
9,3296610E-002	2,202012129297751E-003	4,000000000000000E+000
9,7259820E-002	2,273106210244201E-003	4,000000000000000E+000
1,0129412E-001	2,496585771344463E-003	4,000000000000000E+000
1,0527855E-001	2,735902347113652E-003	4,000000000000000E+000
1,0926192E-001	2,930588837949080E-003	4,000000000000000E+000
1,1323681E-001	3,146449569612741E-003	4,000000000000000E+000
1,1729233E-001	3,241241764852833E-003	4,000000000000000E+000
1,2130222E-001	3,386878407885289E-003	4,000000000000000E+000
1,2527074E-001	3,488233646243726E-003	4,000000000000000E+000
1,2930185E-001	3,714484357260524E-003	4,000000000000000E+000
1,3326187E-001	3,794811753525418E-003	4,000000000000000E+000
1,3727389E-001	3,943002139648252E-003	4,000000000000000E+000
1,4127529E-001	3,978531309662185E-003	4,000000000000000E+000
1,4527458E-001	4,151659651850263E-003	4,000000000000000E+000
1,4925371E-001	4,296241036273504E-003	4,000000000000000E+000
1,5326680E-001	4,440236398093286E-003	4,000000000000000E+000
1,5724167E-001	4,505353121203377E-003	4,000000000000000E+000
1,6126536E-001	4,498950657256917E-003	4,000000000000000E+000
1,6524130E-001	4,633490108972203E-003	4,000000000000000E+000
1,6925330E-001	4,771322311878781E-003	4,000000000000000E+000
1,7327805E-001	4,900031357263100E-003	4,000000000000000E+000
1,7726037E-001	5,043699794138483E-003	4,000000000000000E+000
1,8127027E-001	5,071240889972409E-003	4,000000000000000E+000
1,8526423E-001	5,181369494999283E-003	4,000000000000000E+000
1,8925400E-001	5,267023536968455E-003	4,000000000000000E+000
1,9326815E-001	5,365941581759362E-003	4,000000000000000E+000
1,9727270E-001	5,510033006026392E-003	4,000000000000000E+000
2,0126031E-001	5,588713945245349E-003	4,000000000000000E+000
2,0526811E-001	5,626183140621965E-003	4,000000000000000E+000
2,0928968E-001	5,708489729133570E-003	4,000000000000000E+000
2,1320620E-001	5,910908034113399E-003	4,000000000000000E+000
2,1727021E-001	6,032989950553139E-003	4,000000000000000E+000
2,2127374E-001	6,045541081726294E-003	4,000000000000000E+000
2,2522634E-001	6,068954507807367E-003	4,000000000000000E+000
2,2926062E-001	6,194891947719355E-003	4,000000000000000E+000
2,3325782E-001	6,356991940265309E-003	4,000000000000000E+000
2,3728254E-001	6,487797830535207E-003	4,000000000000000E+000
2,4124576E-001	6,625419847195106E-003	4,000000000000000E+000
2,4527898E-001	6,730870757665916E-003	4,000000000000000E+000
2,4924642E-001	6,803135484208023E-003	4,000000000000000E+000
2,5325951E-001	6,834928184818873E-003	4,000000000000000E+000
2,5723016E-001	6,970261802052902E-003	4,000000000000000E+000
2,6126871E-001	7,117541417553892E-003	4,000000000000000E+000
2,6524359E-001	7,240233273882443E-003	4,000000000000000E+000
2,6923117E-001	7,310068448633619E-003	4,000000000000000E+000
2,7325064E-001	7,532163155297478E-003	4,000000000000000E+000
2,7721810E-001	7,731279258021279E-003	4,000000000000000E+000
2,8121525E-001	7,860198386576214E-003	4,000000000000000E+000
2,8530681E-001	7,970013663806555E-003	4,000000000000000E+000
2,8927538E-001	7,969984756426986E-003	4,000000000000000E+000
2,9327992E-001	8,143421182467157E-003	4,000000000000000E+000
2,9724419E-001	8,346753443927629E-003	4,000000000000000E+000
3,0125839E-001	8,541955332879714E-003	4,000000000000000E+000
3,0522114E-001	8,795898793929807E-003	4,000000000000000E+000
3,0923781E-001	8,886857230714307E-003	4,000000000000000E+000
3,1321591E-001	9,060893934575834E-003	4,000000000000000E+000
3,1722474E-001	9,135713245389893E-003	4,000000000000000E+000
3,2124203E-001	9,328942388593636E-003	4,000000000000000E+000
3,2528272E-001	9,554515209553499E-003	4,000000000000000E+000
3,2923847E-001	9,746478190613278E-003	4,000000000000000E+000
3,3324313E-001	9,941575472314335E-003	4,000000000000000E+000
3,3724025E-001	1,011403030780561E-002	4,000000000000000E+000
3,4125435E-001	1,035355302398485E-002	4,000000000000000E+000
3,4526536E-001	1,052909731758220E-002	4,000000000000000E+000
3,4926036E-001	1,066067824932466E-002	4,000000000000000E+000
3,5625434E-001	1,099869047256008E-002	4,000000000000000E+000
3,6026001E-001	1,119075063616040E-002	4,000000000000000E+000
3,6362186E-001	1,131017971783876E-002	4,000000000000000E+000
3,6104611E-001	1,815429794078220E-003	4,000000000000000E+000
3,5707858E-001	5,859252421234691E-004	4,000000000000000E+000
3,5306767E-001	-8,510106177084232E-005	4,000000000000000E+000
3,4607580E-001	-1,180204529949446E-003	4,000000000000000E+000
3,4204787E-001	-1,520952103419401E-003	4,000000000000000E+000
3,3805603E-001	-1,950581514494031E-003	4,000000000000000E+000
3,3408540E-001	-2,136991530480560E-003	4,000000000000000E+000
3,3007652E-001	-2,426822041848534E-003	4,000000000000000E+000
3,2606030E-001	-2,668241234763002E-003	4,000000000000000E+000
3,2208014E-001	-2,946981292956882E-003	4,000000000000000E+000
3,1804261E-001	-3,052384612601582E-003	4,000000000000000E+000
3,1408685E-001	-3,142261783674855E-003	4,000000000000000E+000
3,1007695E-001	-3,324153216858070E-003	4,000000000000000E+000
3,0612490E-001	-3,580542253406420E-003	4,000000000000000E+000
3,0204868E-001	-3,592768488993467E-003	4,000000000000000E+000
2,9809502E-001	-3,884429730533157E-003	4,000000000000000E+000
2,9407555E-001	-3,910237609185671E-003	4,000000000000000E+000
2,9010600E-001	-4,116417670350814E-003	4,000000000000000E+000
2,8610459E-001	-4,182676735379368E-003	4,000000000000000E+000
2,8210104E-001	-4,445203102578585E-003	4,000000000000000E+000
2,7804446E-001	-4,479789766466846E-003	4,000000000000000E+000
2,7403772E-001	-4,585056905650850E-003	4,000000000000000E+000
2,7007458E-001	-4,551290649639356E-003	4,000000000000000E+000
2,6606676E-001	-4,756644873850729E-003	4,000000000000000E+000
2,6208553E-001	-4,878647160997670E-003	4,000000000000000E+000
2,5805759E-001	-4,943385105434558E-003	4,000000000000000E+000
2,5409120E-001	-4,958116992687181E-003	4,000000000000000E+000
2,5012055E-001	-5,020766318112754E-003	4,000000000000000E+000
2,4611703E-001	-5,101857643441884E-003	4,000000000000000E+000
2,4207531E-001	-5,303193891450050E-003	4,000000000000000E+000
2,3807603E-001	-5,242864465091951E-003	4,000000000000000E+000
2,3408839E-001	-5,431958878842923E-003	4,000000000000000E+000
2,3008278E-001	-5,342274114001261E-003	4,000000000000000E+000
2,2609623E-001	-5,519535733684341E-003	4,000000000000000E+000
2,2208525E-001	-5,608312775115708E-003	4,000000000000000E+000
2,1810822E-001	-5,791210684643971E-003	4,000000000000000E+000
2,1408032E-001	-5,739927128565248E-003	4,000000000000000E+000
2,1008633E-001	-5,825954515279971E-003	4,000000000000000E+000
2,0607962E-001	-5,853271075466165E-003	4,000000000000000E+000
2,0207930E-001	-6,008762035991010E-003	4,000000000000000E+000
1,9810759E-001	-6,105066367631966E-003	4,000000000000000E+000
1,9407012E-001	-6,215834991356414E-003	4,000000000000000E+000
1,9007188E-001	-6,231970809797857E-003	4,000000000000000E+000
1,8610229E-001	-6,186182449811062E-003	4,000000000000000E+000
1,8206908E-001	-6,232345591949205E-003	4,000000000000000E+000
1,7805916E-001	-6,400127544717769E-003	4,000000000000000E+000
1,7405139E-001	-6,424133340058452E-003	4,000000000000000E+000
1,7005637E-001	-6,596494177857584E-003	4,000000000000000E+000
1,6609314E-001	-6,605134978195162E-003	4,000000000000000E+000
1,6207264E-001	-6,772621899371077E-003	4,000000000000000E+000
1,5809670E-001	-6,729457793375707E-003	4,000000000000000E+000
1,5410803E-001	-6,770832086557578E-003	4,000000000000000E+000
1,5006736E-001	-6,779059190497101E-003	4,000000000000000E+000
1,4608291E-001	-6,943003477014459E-003	4,000000000000000E+000
1,4206667E-001	-6,950463108498478E-003	4,000000000000000E+000
1,3810663E-001	-7,104431317808708E-003	4,000000000000000E+000
1,3409886E-001	-7,161607286333374E-003	4,000000000000000E+000
1,3013671E-001	-7,270086192470937E-003	4,000000000000000E+000
1,2603876E-001	-7,246150964622014E-003	4,000000000000000E+000
1,2209040E-001	-7,223319427187874E-003	4,000000000000000E+000
1,1804232E-001	-7,339597102044404E-003	4,000000000000000E+000
1,1410561E-001	-7,512743033051578E-003	4,000000000000000E+000
1,1005966E-001	-7,527450366372562E-003	4,000000000000000E+000
1,0606356E-001	-7,716924897572921E-003	4,000000000000000E+000
1,0209398E-001	-7,716573145848463E-003	4,000000000000000E+000
9,8084077E-002	-7,847009906577579E-003	4,000000000000000E+000
9,4104961E-002	-7,808646944694242E-003	4,000000000000000E+000
9,0115219E-002	-7,903446368194011E-003	4,000000000000000E+000
8,6090475E-002	-7,941140562858537E-003	4,000000000000000E+000
8,2086943E-002	-8,036458239075728E-003	4,000000000000000E+000
7,8087658E-002	-8,046294290074391E-003	4,000000000000000E+000
7,4125499E-002	-8,182633875144826E-003	4,000000000000000E+000
7,0115611E-002	-8,293622100609327E-003	4,000000000000000E+000
6,6099353E-002	-8,380976254152767E-003	4,000000000000000E+000
6,3567199E-002	-7,789944997057319E-003	4,000000000000000E+000
6,7344755E-002	-1,548323481150266E-003	4,000000000000000E+000
7,1242191E-002	-4,283667520673540E-004	4,000000000000000E+000
7,5266950E-002	7,092590531101459E-004	4,000000000000000E+000
7,9270467E-002	1,079257803566081E-003	4,000000000000000E+000
8,3290979E-002	1,649071704074842E-003	4,000000000000000E+000
8,7282836E-002	1,857485285553502E-003	4,000000000000000E+000
9,1268316E-002	2,184657857974853E-003	4,000000000000000E+000
9,5303677E-002	2,203550855281528E-003	4,000000000000000E+000
9,9302962E-002	2,468549562965772E-003	4,000000000000000E+000
1,0326725E-001	2,531034688420027E-003	4,000000000000000E+000
1,0732381E-001	2,898044644300381E-003	4,000000000000000E+000
1,1125414E-001	3,001337939672853E-003	4,000000000000000E+000
1,1527888E-001	3,244198600643559E-003	4,000000000000000E+000
1,1930469E-001	3,220983452896092E-003	4,000000000000000E+000
1,2322865E-001	3,448649038546144E-003	4,000000000000000E+000
1,2725340E-001	3,556197476225664E-003	4,000000000000000E+000
1,3128345E-001	3,867790946767674E-003	4,000000000000000E+000
1,3531880E-001	3,750470070574219E-003	4,000000000000000E+000
1,3931704E-001	4,033454315099855E-003	4,000000000000000E+000
1,4325479E-001	3,979376464283445E-003	4,000000000000000E+000
1,4725621E-001	4,299581478941664E-003	4,000000000000000E+000
1,5127456E-001	4,321367932587055E-003	4,000000000000000E+000
1,5523672E-001	4,532563321441155E-003	4,000000000000000E+000
1,5926890E-001	4,507238019464763E-003	4,000000000000000E+000
1,6323529E-001	4,613734263128017E-003	4,000000000000000E+000
1,6730459E-001	4,605169568902903E-003	4,000000000000000E+000
1,7124447E-001	4,890449215761511E-003	4,000000000000000E+000
1,7522360E-001	4,938531768049065E-003	4,000000000000000E+000
1,7925365E-001	5,110927729320897E-003	4,000000000000000E+000
1,8329220E-001	5,068501330646943E-003	4,000000000000000E+000
1,8725862E-001	5,242796791006019E-003	4,000000000000000E+000
1,9122498E-001	5,284420289778324E-003	4,000000000000000E+000
1,9528155E-001	5,540265524258667E-003	4,000000000000000E+000
1,9924161E-001	5,432621649864217E-003	4,000000000000000E+000
2,0327377E-001	5,664800781637017E-003	4,000000000000000E+000
2,0724121E-001	5,607583848258310E-003	4,000000000000000E+000
2,1127023E-001	5,915695386243494E-003	4,000000000000000E+000
2,1526527E-001	5,912269615995072E-003	4,000000000000000E+000
2,1923162E-001	6,105801102320488E-003	4,000000000000000E+000
2,2326593E-001	6,046706532894575E-003	4,000000000000000E+000
2,2727479E-001	6,189846455931245E-003	4,000000000000000E+000
2,3125073E-001	6,243485325992684E-003	4,000000000000000E+000
2,3528498E-001	6,530282854429165E-003	4,000000000000000E+000
2,3926626E-001	6,610219552385443E-003	4,000000000000000E+000
2,4329102E-001	6,769406469377140E-003	4,000000000000000E+000
2,4728709E-001	6,701639273766623E-003	4,000000000000000E+000
2,4935897E-001	6,848574383184314E-003	4,000000000000000E+000