File: fig_si_ecsa/TiO2/20.txt
EC-Lab ASCII FILE
Ewe/V	<I>/mA	cycle number
6,3032545E-002	-6,878280639648438E-002	1,000000000000000E+000
6,8530537E-002	-6,176045354287563E-003	1,000000000000000E+000
7,2846152E-002	-4,108134999384033E-003	1,000000000000000E+000
7,6850742E-002	-3,211696941973582E-003	1,000000000000000E+000
8,0858514E-002	-2,641841467872538E-003	1,000000000000000E+000
8,4863104E-002	-2,278211774426860E-003	1,000000000000000E+000
8,8817835E-002	-1,960873075842286E-003	1,000000000000000E+000
9,2839397E-002	-1,651436483838455E-003	1,000000000000000E+000
9,6875817E-002	-1,501761417953440E-003	1,000000000000000E+000
1,0086767E-001	-1,271966864199689E-003	1,000000000000000E+000
1,0484574E-001	-1,228272897926078E-003	1,000000000000000E+000
1,0883972E-001	-1,058410261942257E-003	1,000000000000000E+000
1,1284430E-001	-8,694536557380130E-004	1,000000000000000E+000
1,1680645E-001	-8,390499828136748E-004	1,000000000000000E+000
1,2081211E-001	-6,602593334861222E-004	1,000000000000000E+000
1,2482519E-001	-5,439059890603760E-004	1,000000000000000E+000
1,2882766E-001	-5,532201645716366E-004	1,000000000000000E+000
1,3286300E-001	-4,065368389639702E-004	1,000000000000000E+000
1,3681030E-001	-3,920999174203688E-004	1,000000000000000E+000
1,4082338E-001	-3,134394597610573E-004	1,000000000000000E+000
1,4484601E-001	-2,538317715637577E-004	1,000000000000000E+000
1,4883150E-001	-1,434943121804761E-004	1,000000000000000E+000
1,5284245E-001	-1,053033028786861E-004	1,000000000000000E+000
1,5685448E-001	4,119429718809069E-005	1,000000000000000E+000
1,6083148E-001	7,733677085673837E-005	1,000000000000000E+000
1,6484350E-001	1,800224268175009E-004	1,000000000000000E+000
1,6884278E-001	1,697857089008420E-004	1,000000000000000E+000
1,7283994E-001	2,508719388869302E-004	1,000000000000000E+000
1,7682014E-001	2,090053958286086E-004	1,000000000000000E+000
1,8082686E-001	3,149480579075449E-004	1,000000000000000E+000
1,8483144E-001	3,096484080944931E-004	1,000000000000000E+000
1,8880738E-001	3,119740071000432E-004	1,000000000000000E+000
1,9282047E-001	5,027786416610114E-004	1,000000000000000E+000
1,9683987E-001	5,278325604902243E-004	1,000000000000000E+000
2,0079991E-001	6,060685737220772E-004	1,000000000000000E+000
2,0483422E-001	6,036840432241458E-004	1,000000000000000E+000
2,0880061E-001	6,929761837821194E-004	1,000000000000000E+000
2,1284977E-001	7,490055695766554E-004	1,000000000000000E+000
2,1683632E-001	7,228640482666087E-004	1,000000000000000E+000
2,2080907E-001	8,508335193558488E-004	1,000000000000000E+000
2,2475320E-001	8,799461668947608E-004	1,000000000000000E+000
2,2884691E-001	1,003102250799064E-003	1,000000000000000E+000
2,3283346E-001	1,029240927281527E-003	1,000000000000000E+000
2,3680834E-001	1,071128059366960E-003	1,000000000000000E+000
2,4084368E-001	1,089641505266758E-003	1,000000000000000E+000
2,4482176E-001	1,156909702684873E-003	1,000000000000000E+000
2,4885714E-001	1,229981693069458E-003	1,000000000000000E+000
2,5280547E-001	1,347823498033696E-003	1,000000000000000E+000
2,5681722E-001	1,402155008324866E-003	1,000000000000000E+000
2,6082736E-001	1,462213783354481E-003	1,000000000000000E+000
2,6483938E-001	1,523840433715458E-003	1,000000000000000E+000
2,6883018E-001	1,572922615196148E-003	1,000000000000000E+000
2,7280083E-001	1,632238417591409E-003	1,000000000000000E+000
2,7679485E-001	1,706368612615363E-003	1,000000000000000E+000
2,8082913E-001	1,798534458533795E-003	1,000000000000000E+000
2,8486872E-001	1,897783346134092E-003	1,000000000000000E+000
2,8882027E-001	1,945704133074990E-003	1,000000000000000E+000
2,9279727E-001	2,016117259295749E-003	1,000000000000000E+000
2,9686341E-001	2,116633595101629E-003	1,000000000000000E+000
3,0080116E-001	2,185587700633151E-003	1,000000000000000E+000
3,0481637E-001	2,306052967065216E-003	1,000000000000000E+000
3,0878487E-001	2,386694263636687E-003	1,000000000000000E+000
3,1279051E-001	2,450552131954796E-003	1,000000000000000E+000
3,1680039E-001	2,522672118815281E-003	1,000000000000000E+000
3,2079649E-001	2,667135964589694E-003	1,000000000000000E+000
3,2482231E-001	2,719038704257118E-003	1,000000000000000E+000
3,2879826E-001	2,833774011782614E-003	1,000000000000000E+000
3,3279115E-001	2,953015829445099E-003	1,000000000000000E+000
3,3682761E-001	3,043870030389237E-003	1,000000000000000E+000
3,4081841E-001	3,126987172840434E-003	1,000000000000000E+000
3,4481555E-001	3,211757915172118E-003	1,000000000000000E+000
3,4879255E-001	3,349949197231413E-003	1,000000000000000E+000
3,5281944E-001	3,367775936365225E-003	1,000000000000000E+000
3,5682821E-001	3,458105524596595E-003	1,000000000000000E+000
3,6076283E-001	3,599111906994410E-003	1,000000000000000E+000
3,6364096E-001	3,301029419526459E-003	1,000000000000000E+000
3,5998526E-001	3,070002701456860E-003	1,000000000000000E+000
3,5599339E-001	2,618711244580216E-003	1,000000000000000E+000
3,5198244E-001	2,422957495986745E-003	1,000000000000000E+000
3,4801388E-001	2,218874168125631E-003	1,000000000000000E+000
3,4400508E-001	1,982819329348920E-003	1,000000000000000E+000
3,4000260E-001	1,811426989358250E-003	1,000000000000000E+000
3,3593759E-001	1,682885694764179E-003	1,000000000000000E+000
3,3196267E-001	1,562892160109179E-003	1,000000000000000E+000
3,2799736E-001	1,436655913039424E-003	1,000000000000000E+000
3,2402986E-001	1,326524663926210E-003	1,000000000000000E+000
3,1997967E-001	1,249830273940867E-003	1,000000000000000E+000
3,1596977E-001	1,139100777436404E-003	1,000000000000000E+000
3,1198215E-001	9,983479657025597E-004	1,000000000000000E+000
3,0801150E-001	9,400843654879705E-004	1,000000000000000E+000
3,0403981E-001	8,260861432737082E-004	1,000000000000000E+000
3,0004901E-001	7,973478307290154E-004	1,000000000000000E+000
2,9603809E-001	6,924308899114175E-004	1,000000000000000E+000
2,9202181E-001	6,107226994808389E-004	1,000000000000000E+000
2,8802675E-001	5,754880847706327E-004	1,000000000000000E+000
2,8403491E-001	5,225801088584005E-004	1,000000000000000E+000
2,8003034E-001	4,612393219960917E-004	1,000000000000000E+000
2,7602252E-001	3,681183354055304E-004	1,000000000000000E+000
2,7201054E-001	3,074849146624155E-004	1,000000000000000E+000
2,6800701E-001	2,065117792308577E-004	1,000000000000000E+000
2,6400241E-001	1,577391660534718E-004	1,000000000000000E+000
2,6006463E-001	1,775111225099492E-004	1,000000000000000E+000
2,5606325E-001	1,521948994380826E-004	1,000000000000000E+000
2,5200772E-001	4,877530436799677E-005	1,000000000000000E+000
2,4802120E-001	4,217670395321400E-006	1,000000000000000E+000
2,4406432E-001	-5,768909163455859E-005	1,000000000000000E+000
2,4002475E-001	-4,191101137646726E-005	1,000000000000000E+000
2,3607425E-001	-1,756340849007536E-004	1,000000000000000E+000
2,3205376E-001	-1,915624667432241E-004	1,000000000000000E+000
2,2804917E-001	-2,153577935991447E-004	1,000000000000000E+000
2,2401592E-001	-2,475977835485067E-004	1,000000000000000E+000
2,2002299E-001	-3,349150870909164E-004	1,000000000000000E+000
2,1601948E-001	-3,185622428510991E-004	1,000000000000000E+000
2,1202232E-001	-3,454112301942251E-004	1,000000000000000E+000
2,0800371E-001	-4,461550111772815E-004	1,000000000000000E+000
2,0406406E-001	-4,455826508462813E-004	1,000000000000000E+000
2,0001808E-001	-4,793966061495463E-004	1,000000000000000E+000
1,9604427E-001	-5,718160573661831E-004	1,000000000000000E+000
1,9201954E-001	-5,121258853448673E-004	1,000000000000000E+000
1,8802662E-001	-6,758074940467814E-004	1,000000000000000E+000
1,8403584E-001	-7,183549403264431E-004	1,000000000000000E+000
1,8003970E-001	-6,853515720919232E-004	1,000000000000000E+000
1,7600223E-001	-7,831679364345354E-004	1,000000000000000E+000
1,7199023E-001	-7,554760219069014E-004	1,000000000000000E+000
1,6798671E-001	-7,807598665547436E-004	1,000000000000000E+000
1,6400863E-001	-8,135009014485690E-004	1,000000000000000E+000
1,6002463E-001	-9,238642900399156E-004	1,000000000000000E+000
1,5601538E-001	-8,974904499997084E-004	1,000000000000000E+000
1,5201713E-001	-9,723868756568478E-004	1,000000000000000E+000
1,4803059E-001	-1,031705747121973E-003	1,000000000000000E+000
1,4403661E-001	-1,090827170885321E-003	1,000000000000000E+000
1,3999595E-001	-1,046814722131887E-003	1,000000000000000E+000
1,3602212E-001	-1,121982350906803E-003	1,000000000000000E+000
1,3202494E-001	-1,137571859241382E-003	1,000000000000000E+000
1,2800340E-001	-1,254983345486630E-003	1,000000000000000E+000
1,2403487E-001	-1,233681586747347E-003	1,000000000000000E+000
1,2004196E-001	-1,300590316767970E-003	1,000000000000000E+000
1,1604585E-001	-1,277024882879401E-003	1,000000000000000E+000
1,1200307E-001	-1,324981012615994E-003	1,000000000000000E+000
1,0801971E-001	-1,406995694504041E-003	1,000000000000000E+000
1,0405436E-001	-1,433691426309794E-003	1,000000000000000E+000
1,0000946E-001	-1,434109995969902E-003	1,000000000000000E+000
9,6030340E-002	-1,441785264533898E-003	1,000000000000000E+000
9,2009835E-002	-1,555046713275696E-003	1,000000000000000E+000
8,8025413E-002	-1,546997042059621E-003	1,000000000000000E+000
8,4040977E-002	-1,616325650755038E-003	1,000000000000000E+000
8,0039561E-002	-1,638950737161499E-003	1,000000000000000E+000
7,6012693E-002	-1,624628743768505E-003	1,000000000000000E+000
7,2072811E-002	-1,674191289322585E-003	1,000000000000000E+000
6,8047009E-002	-1,727167092726196E-003	1,000000000000000E+000
6,4061247E-002	-1,776197138629726E-003	1,000000000000000E+000
6,6127993E-002	-2,100031387979266E-003	2,000000000000000E+000
7,0165463E-002	-1,709570351926641E-003	2,000000000000000E+000
7,4138232E-002	-1,548685970613381E-003	2,000000000000000E+000
7,8174651E-002	-1,381045783596678E-003	2,000000000000000E+000
8,2158022E-002	-1,245955043529010E-003	2,000000000000000E+000
8,6153053E-002	-1,156863371110504E-003	2,000000000000000E+000
9,0147041E-002	-1,050257475358024E-003	2,000000000000000E+000
9,4173908E-002	-8,880760390942060E-004	2,000000000000000E+000
9,8157272E-002	-8,224053362263714E-004	2,000000000000000E+000
1,0216080E-001	-7,390288517651940E-004	2,000000000000000E+000
1,0615690E-001	-6,866042777060252E-004	2,000000000000000E+000
1,1011482E-001	-6,334133266608219E-004	2,000000000000000E+000
1,1411623E-001	-5,509711954421940E-004	2,000000000000000E+000
1,1811232E-001	-4,411937964471646E-004	2,000000000000000E+000
1,2209040E-001	-3,789952499004727E-004	2,000000000000000E+000
1,2614380E-001	-3,432978155278423E-004	2,000000000000000E+000
1,3014306E-001	-3,046440460821023E-004	2,000000000000000E+000
1,3416357E-001	-2,893906270889637E-004	2,000000000000000E+000
1,3810663E-001	-1,427633372225465E-004	2,000000000000000E+000
1,4210591E-001	-1,530265868260120E-004	2,000000000000000E+000
1,4611898E-001	-7,785305760974240E-005	2,000000000000000E+000
1,5008114E-001	-7,335808260748919E-005	2,000000000000000E+000
1,5414833E-001	1,225556158088479E-005	2,000000000000000E+000
1,5812321E-001	7,594260554389667E-005	2,000000000000000E+000
1,6208644E-001	7,796459303006535E-005	2,000000000000000E+000
1,6614407E-001	2,220599388709633E-004	2,000000000000000E+000
1,7011152E-001	1,191826954320060E-004	2,000000000000000E+000
1,7407580E-001	2,358572906410294E-004	2,000000000000000E+000
1,7809419E-001	3,451836967677197E-004	2,000000000000000E+000
1,8211256E-001	3,237670455712731E-004	2,000000000000000E+000
1,8613732E-001	4,292027210121220E-004	2,000000000000000E+000
1,9012597E-001	4,526885376671319E-004	2,000000000000000E+000
1,9409555E-001	4,975910330729146E-004	2,000000000000000E+000
1,9814362E-001	5,545223642137113E-004	2,000000000000000E+000
2,0212382E-001	5,618499224140225E-004	2,000000000000000E+000
2,0606688E-001	6,311166274683795E-004	2,000000000000000E+000
2,1008208E-001	7,004098284529321E-004	2,000000000000000E+000
2,1411216E-001	7,744308759356482E-004	2,000000000000000E+000
2,1811675E-001	7,776525145362524E-004	2,000000000000000E+000
2,2213618E-001	8,271236894104193E-004	2,000000000000000E+000
2,2611740E-001	9,566081583182462E-004	2,000000000000000E+000
2,3013793E-001	9,045402700427977E-004	2,000000000000000E+000
2,3414038E-001	9,712190378902759E-004	2,000000000000000E+000
2,3810148E-001	1,100541308715645E-003	2,000000000000000E+000
2,4213257E-001	1,112499493366931E-003	2,000000000000000E+000
2,4614885E-001	1,139383776885720E-003	2,000000000000000E+000
2,5013965E-001	1,270678111083079E-003	2,000000000000000E+000
2,5414848E-001	1,235841456055143E-003	2,000000000000000E+000
2,5814775E-001	1,327600643961618E-003	2,000000000000000E+000
2,6210353E-001	1,412562809980077E-003	2,000000000000000E+000
2,6614633E-001	1,491856952114810E-003	2,000000000000000E+000
2,7013180E-001	1,485855752085388E-003	2,000000000000000E+000
2,7408868E-001	1,618152193427869E-003	2,000000000000000E+000
2,7810174E-001	1,729530128243457E-003	2,000000000000000E+000
2,8212330E-001	1,764534904025453E-003	2,000000000000000E+000
2,8612155E-001	1,833934180808683E-003	2,000000000000000E+000
2,9012400E-001	1,976880001837733E-003	2,000000000000000E+000
2,9416886E-001	1,979730143906032E-003	2,000000000000000E+000
2,9811728E-001	2,123675257246722E-003	2,000000000000000E+000
3,0211231E-001	2,121214006533746E-003	2,000000000000000E+000
3,0609778E-001	2,327923644096933E-003	2,000000000000000E+000
3,1008860E-001	2,327428236808544E-003	2,000000000000000E+000
3,1412819E-001	2,448450551363987E-003	2,000000000000000E+000
3,1814978E-001	2,535900598256074E-003	2,000000000000000E+000
3,2207692E-001	2,636602639136574E-003	2,000000000000000E+000
3,2610378E-001	2,685289668550944E-003	2,000000000000000E+000
3,3012429E-001	2,806482690007051E-003	2,000000000000000E+000
3,3412781E-001	2,898887617414365E-003	2,000000000000000E+000
3,3813876E-001	3,022450609865612E-003	2,000000000000000E+000
3,4209666E-001	3,091637609705461E-003	2,000000000000000E+000
3,4609807E-001	3,200781420067265E-003	2,000000000000000E+000
3,5014725E-001	3,251605276427968E-003	2,000000000000000E+000
3,5412702E-001	3,375707802802802E-003	2,000000000000000E+000
3,5808107E-001	3,489947570617186E-003	2,000000000000000E+000
3,6210477E-001	3,539684102482454E-003	2,000000000000000E+000
3,6197111E-001	3,257264662048929E-003	2,000000000000000E+000
3,5800788E-001	2,758400078383374E-003	2,000000000000000E+000
3,5401085E-001	2,402288119340377E-003	2,000000000000000E+000
3,5002419E-001	2,196582108227735E-003	2,000000000000000E+000
3,4599519E-001	2,035461828789405E-003	2,000000000000000E+000
3,4194070E-001	1,906130743817715E-003	2,000000000000000E+000
3,3799344E-001	1,699144237054246E-003	2,000000000000000E+000
3,3399624E-001	1,530911616260636E-003	2,000000000000000E+000
3,2997894E-001	1,404616346774305E-003	2,000000000000000E+000
3,2599241E-001	1,300215139980100E-003	2,000000000000000E+000
3,2200265E-001	1,192698493202604E-003	2,000000000000000E+000
3,1797686E-001	1,135381024486948E-003	2,000000000000000E+000
3,1400517E-001	9,866286149510309E-004	2,000000000000000E+000
3,1002283E-001	9,699368631067469E-004	2,000000000000000E+000
3,0601719E-001	8,756663695142636E-004	2,000000000000000E+000
3,0195001E-001	8,079235187357890E-004	2,000000000000000E+000
2,9802284E-001	6,275265401595965E-004	2,000000000000000E+000
2,9401720E-001	6,477848071284632E-004	2,000000000000000E+000
2,9001895E-001	5,188308612863110E-004	2,000000000000000E+000
2,8604090E-001	4,695866665416473E-004	2,000000000000000E+000
2,8200343E-001	4,028636721900370E-004	2,000000000000000E+000
2,7803171E-001	3,192219658650960E-004	2,000000000000000E+000
2,7400485E-001	2,321021525286027E-004	2,000000000000000E+000
2,7004164E-001	2,932926296900267E-004	2,000000000000000E+000
2,6603174E-001	1,699684390940898E-004	2,000000000000000E+000
2,6204094E-001	1,283907298104455E-004	2,000000000000000E+000
2,5801304E-001	1,069475245803575E-004	2,000000000000000E+000
2,5401694E-001	2,907114540983425E-005	2,000000000000000E+000
2,5002825E-001	7,501217392881672E-006	2,000000000000000E+000
2,4605551E-001	-1,187873791271471E-005	2,000000000000000E+000
2,4202757E-001	-6,767529843003763E-005	2,000000000000000E+000
2,3800495E-001	-1,912323465249860E-004	2,000000000000000E+000
2,3400670E-001	-2,454165965917592E-004	2,000000000000000E+000
2,3001276E-001	-2,718293400094908E-004	2,000000000000000E+000
2,2601132E-001	-2,438249351362841E-004	2,000000000000000E+000
2,2204386E-001	-2,549223656253025E-004	2,000000000000000E+000
2,1801277E-001	-3,684549099118705E-004	2,000000000000000E+000
2,1403894E-001	-3,639245804623447E-004	2,000000000000000E+000
2,1002799E-001	-4,768204456400715E-004	2,000000000000000E+000
2,0604993E-001	-5,016415314424154E-004	2,000000000000000E+000
2,0199230E-001	-5,557108127807937E-004	2,000000000000000E+000
1,9803436E-001	-5,903618849532450E-004	2,000000000000000E+000
1,9404359E-001	-6,057626866554193E-004	2,000000000000000E+000
1,8999338E-001	-6,619541822761622E-004	2,000000000000000E+000
1,8604502E-001	-6,300059698989783E-004	2,000000000000000E+000
1,8205526E-001	-6,604450320874412E-004	2,000000000000000E+000
1,7800400E-001	-8,065594617653047E-004	2,000000000000000E+000
1,7398031E-001	-7,822542290712026E-004	2,000000000000000E+000
1,7001498E-001	-8,122246093467712E-004	2,000000000000000E+000
1,6599661E-001	-9,005529495290680E-004	2,000000000000000E+000
1,6201004E-001	-8,922910324713467E-004	2,000000000000000E+000
1,5804790E-001	-8,528031332507135E-004	2,000000000000000E+000
1,5402952E-001	-9,040162168461180E-004	2,000000000000000E+000
1,5004295E-001	-1,058766890584675E-003	2,000000000000000E+000
1,4599381E-001	-1,069130474728876E-003	2,000000000000000E+000
1,4203165E-001	-1,090762243692291E-003	2,000000000000000E+000
1,3801539E-001	-1,118135858961168E-003	2,000000000000000E+000
1,3407977E-001	-1,151584294129185E-003	2,000000000000000E+000
1,3003592E-001	-1,218095070844020E-003	2,000000000000000E+000
1,2604618E-001	-1,199531582198298E-003	2,000000000000000E+000
1,2203100E-001	-1,320149962170778E-003	2,000000000000000E+000
1,1802746E-001	-1,339727341174962E-003	2,000000000000000E+000
1,1402076E-001	-1,346945858588071E-003	2,000000000000000E+000
1,1003739E-001	-1,316618873953824E-003	2,000000000000000E+000
1,0602112E-001	-1,399889304988161E-003	2,000000000000000E+000
1,0202713E-001	-1,463257967316169E-003	2,000000000000000E+000
9,8050125E-002	-1,509522243294571E-003	2,000000000000000E+000
9,4047666E-002	-1,517126907218521E-003	2,000000000000000E+000
9,0019748E-002	-1,529818867077718E-003	2,000000000000000E+000
8,6051226E-002	-1,560502548917006E-003	2,000000000000000E+000
8,2063600E-002	-1,601496660056358E-003	2,000000000000000E+000
7,8101449E-002	-1,596326659182523E-003	2,000000000000000E+000
7,4025787E-002	-1,733200604374161E-003	2,000000000000000E+000
7,0016958E-002	-1,659789780643670E-003	2,000000000000000E+000
6,6015542E-002	-1,764638905856201E-003	2,000000000000000E+000
6,4093336E-002	-2,499817947628574E-003	3,000000000000000E+000
6,8147793E-002	-1,886893130469389E-003	3,000000000000000E+000
7,2136462E-002	-1,705390835215637E-003	3,000000000000000E+000
7,6125145E-002	-1,459703214937625E-003	3,000000000000000E+000
8,0158383E-002	-1,282350974052957E-003	3,000000000000000E+000
8,4104620E-002	-1,227674530426794E-003	3,000000000000000E+000
8,8101774E-002	-1,130709985352075E-003	3,000000000000000E+000
9,2136078E-002	-9,850052617231837E-004	3,000000000000000E+000
9,6172489E-002	-8,788326306751436E-004	3,000000000000000E+000
1,0016116E-001	-8,659431268487946E-004	3,000000000000000E+000
1,0415089E-001	-7,358543816735610E-004	3,000000000000000E+000
1,0818307E-001	-6,548712380107565E-004	3,000000000000000E+000
1,1213674E-001	-6,552633132944041E-004	3,000000000000000E+000
1,1612435E-001	-5,100832098984612E-004	3,000000000000000E+000
1,2009817E-001	-5,160047961049290E-004	3,000000000000000E+000
1,2407520E-001	-4,226037763820152E-004	3,000000000000000E+000
1,2811479E-001	-4,286402990871883E-004	3,000000000000000E+000
1,3213104E-001	-2,794457233769071E-004	3,000000000000000E+000
1,3610806E-001	-2,689053641612784E-004	3,000000000000000E+000
1,4010626E-001	-1,782455537619608E-004	3,000000000000000E+000
1,4414269E-001	-1,518299248270219E-004	3,000000000000000E+000
1,4812924E-001	-3,636671753518505E-005	3,000000000000000E+000
1,5214868E-001	-3,275894859253062E-005	3,000000000000000E+000
1,5611720E-001	4,863678167213122E-005	3,000000000000000E+000
1,6009846E-001	8,085020013587124E-005	3,000000000000000E+000
1,6407230E-001	1,233210086039832E-004	3,000000000000000E+000
1,6813204E-001	1,633335815709137E-004	3,000000000000000E+000
1,7210586E-001	2,203739772952493E-004	3,000000000000000E+000
1,7609452E-001	3,073788209938481E-004	3,000000000000000E+000
1,8012777E-001	2,663464403196018E-004	3,000000000000000E+000
1,8415569E-001	3,542679454498023E-004	3,000000000000000E+000
1,8811466E-001	3,944161139602144E-004	3,000000000000000E+000
1,9212668E-001	4,463484479115495E-004	3,000000000000000E+000
1,9611746E-001	5,205817219575692E-004	3,000000000000000E+000
2,0011571E-001	6,068025194776046E-004	3,000000000000000E+000
2,0408741E-001	5,744652693027621E-004	3,000000000000000E+000
2,0810005E-001	6,952447781410128E-004	3,000000000000000E+000
2,1209446E-001	6,965987016277087E-004	3,000000000000000E+000
2,1610859E-001	7,471339503758341E-004	3,000000000000000E+000
2,2009729E-001	7,256140591683398E-004	3,000000000000000E+000
2,2413899E-001	8,010675910217913E-004	3,000000000000000E+000
2,2809902E-001	8,648342055258378E-004	3,000000000000000E+000
2,3214710E-001	9,140076728255259E-004	3,000000000000000E+000
2,3610076E-001	1,070255667526807E-003	3,000000000000000E+000
2,4013294E-001	1,051058442638152E-003	3,000000000000000E+000
2,4411312E-001	1,151630745358418E-003	3,000000000000000E+000
2,4812517E-001	1,182617937586280E-003	3,000000000000000E+000
2,5212231E-001	1,253950884877971E-003	3,000000000000000E+000
2,5615236E-001	1,331644612912858E-003	3,000000000000000E+000
2,6011029E-001	1,352153474316415E-003	3,000000000000000E+000
2,6412547E-001	1,369048654652268E-003	3,000000000000000E+000
2,6811734E-001	1,473487978336782E-003	3,000000000000000E+000
2,7214524E-001	1,578110222431581E-003	3,000000000000000E+000
2,7611163E-001	1,626402319040467E-003	3,000000000000000E+000
2,8010669E-001	1,708458339814339E-003	3,000000000000000E+000
2,8414100E-001	1,781742521508790E-003	3,000000000000000E+000
2,8816786E-001	1,876988614861193E-003	3,000000000000000E+000
2,9213214E-001	1,957355529281431E-003	3,000000000000000E+000
2,9613566E-001	2,005149615730198E-003	3,000000000000000E+000
3,0013070E-001	2,131055859468628E-003	3,000000000000000E+000
3,0409074E-001	2,128933609061214E-003	3,000000000000000E+000
3,0805290E-001	2,254285626501476E-003	3,000000000000000E+000
3,1209037E-001	2,411453262471630E-003	3,000000000000000E+000
3,1611511E-001	2,436395189660177E-003	3,000000000000000E+000
3,2016319E-001	2,567250303400218E-003	3,000000000000000E+000
3,2408822E-001	2,650538458342286E-003	3,000000000000000E+000
3,2809386E-001	2,724995749843022E-003	3,000000000000000E+000
3,3208996E-001	2,843807322885056E-003	3,000000000000000E+000
3,3613697E-001	2,955294276977882E-003	3,000000000000000E+000
3,4014267E-001	3,006648784826711E-003	3,000000000000000E+000
3,4411970E-001	3,116334897910120E-003	3,000000000000000E+000
3,4809667E-001	3,162127568901718E-003	3,000000000000000E+000
3,5212457E-001	3,258806040523470E-003	3,000000000000000E+000
3,5611963E-001	3,403408474426856E-003	3,000000000000000E+000
3,6010623E-001	3,498695926585554E-003	3,000000000000000E+000
3,6346909E-001	3,328702909251056E-003	3,000000000000000E+000
3,5999265E-001	3,002990880001277E-003	3,000000000000000E+000
3,5598597E-001	2,576540906543582E-003	3,000000000000000E+000
3,5198456E-001	2,292370675149881E-003	3,000000000000000E+000
3,4801814E-001	2,095039990342266E-003	3,000000000000000E+000
3,4398705E-001	1,942606246673136E-003	3,000000000000000E+000
3,4001216E-001	1,758757712237900E-003	3,000000000000000E+000
3,3603939E-001	1,582507907183187E-003	3,000000000000000E+000
3,3201891E-001	1,439809694029795E-003	3,000000000000000E+000
3,2798564E-001	1,317800103977244E-003	3,000000000000000E+000
3,2404894E-001	1,316491377986461E-003	3,000000000000000E+000
3,1999665E-001	1,108387629537229E-003	3,000000000000000E+000
3,1600693E-001	9,981121194397469E-004	3,000000000000000E+000
3,1203097E-001	9,439515363704196E-004	3,000000000000000E+000
3,0800730E-001	8,652704777718824E-004	3,000000000000000E+000
3,0402178E-001	7,946508219363237E-004	3,000000000000000E+000
3,0004054E-001	7,192621344445285E-004	3,000000000000000E+000
2,9604229E-001	6,656054923513260E-004	3,000000000000000E+000
2,9199633E-001	5,161427594194495E-004	3,000000000000000E+000
2,8805012E-001	5,155679449739244E-004	3,000000000000000E+000
2,8403702E-001	4,584185391515207E-004	3,000000000000000E+000
2,8002712E-001	3,892284719566094E-004	3,000000000000000E+000
2,7600029E-001	3,412546527417565E-004	3,000000000000000E+000
2,7201158E-001	2,564781118929169E-004	3,000000000000000E+000
2,6801440E-001	1,906275948613261E-004	3,000000000000000E+000
2,6402998E-001	8,222965021523697E-005	3,000000000000000E+000
2,6002541E-001	1,361633355322239E-004	3,000000000000000E+000
2,5605583E-001	6,310023911737495E-005	3,000000000000000E+000
2,5205547E-001	-3,577428977947700E-005	3,000000000000000E+000
2,4804984E-001	-2,113394825292517E-005	3,000000000000000E+000
2,4401551E-001	-1,172643481166032E-004	3,000000000000000E+000
2,4002367E-001	-1,021877871420639E-004	3,000000000000000E+000
2,3605834E-001	-2,085519717083019E-004	3,000000000000000E+000
2,3206438E-001	-2,634082648000903E-004	3,000000000000000E+000
2,2806507E-001	-3,030848413766731E-004	3,000000000000000E+000
2,2407427E-001	-2,908614784010522E-004	3,000000000000000E+000
2,2000924E-001	-3,187420304331884E-004	3,000000000000000E+000
2,1601419E-001	-4,093045881071941E-004	3,000000000000000E+000
2,1202655E-001	-4,254835366400224E-004	3,000000000000000E+000
2,0803946E-001	-4,990906924698911E-004	3,000000000000000E+000
2,0400997E-001	-5,315264425639179E-004	3,000000000000000E+000
2,0001388E-001	-5,959946029516130E-004	3,000000000000000E+000
1,9606233E-001	-5,640228026145956E-004	3,000000000000000E+000
1,9200999E-001	-6,037082568000132E-004	3,000000000000000E+000
1,8803191E-001	-7,056275700594791E-004	3,000000000000000E+000
1,8403475E-001	-6,948425683798685E-004	3,000000000000000E+000
1,8002592E-001	-7,468575187245998E-004	3,000000000000000E+000
1,7600968E-001	-8,012303696802894E-004	3,000000000000000E+000
1,7201355E-001	-8,308529142798064E-004	3,000000000000000E+000
1,6806626E-001	-8,665739090718966E-004	3,000000000000000E+000
1,6401605E-001	-9,545632591762446E-004	3,000000000000000E+000
1,6001771E-001	-9,561470861839932E-004	3,000000000000000E+000
1,5604082E-001	-9,184709057350384E-004	3,000000000000000E+000
1,5202563E-001	-1,021306928561425E-003	3,000000000000000E+000
1,4807302E-001	-9,888605985890059E-004	3,000000000000000E+000
1,4401539E-001	-1,061628955375860E-003	3,000000000000000E+000
1,4008719E-001	-1,133807830329816E-003	3,000000000000000E+000
1,3601786E-001	-1,136770116200171E-003	3,000000000000000E+000
1,3202813E-001	-1,181923173042512E-003	3,000000000000000E+000
1,2803523E-001	-1,288596803988181E-003	3,000000000000000E+000
1,2400730E-001	-1,236425684421897E-003	3,000000000000000E+000
1,2002180E-001	-1,310107843260591E-003	3,000000000000000E+000
1,1605223E-001	-1,408882106968835E-003	3,000000000000000E+000
1,1201899E-001	-1,370310960737694E-003	3,000000000000000E+000
1,0800909E-001	-1,385275457677280E-003	3,000000000000000E+000
1,0400663E-001	-1,457324601039578E-003	3,000000000000000E+000
1,0006886E-001	-1,467116247695271E-003	3,000000000000000E+000
9,6064292E-002	-1,517604318080512E-003	3,000000000000000E+000
9,2066057E-002	-1,514509429667939E-003	3,000000000000000E+000
8,8011608E-002	-1,594166197635249E-003	3,000000000000000E+000
8,4016576E-002	-1,613622779485818E-003	3,000000000000000E+000
8,0045924E-002	-1,681922603253314E-003	3,000000000000000E+000
7,6015875E-002	-1,679484984372773E-003	3,000000000000000E+000
7,2040990E-002	-1,718763725625230E-003	3,000000000000000E+000
6,8021551E-002	-1,774748823406849E-003	3,000000000000000E+000
6,4075574E-002	-1,793579351840435E-003	3,000000000000000E+000
6,6169359E-002	-2,043509567859765E-003	4,000000000000000E+000
7,0168644E-002	-1,812258989553412E-003	4,000000000000000E+000
7,4108526E-002	-1,602018304412117E-003	4,000000000000000E+000
7,8171469E-002	-1,377302391911490E-003	4,000000000000000E+000
8,2162254E-002	-1,288042645346310E-003	4,000000000000000E+000
8,6139269E-002	-1,167465572941048E-003	4,000000000000000E+000
9,0131134E-002	-1,066651548982198E-003	4,000000000000000E+000
9,4190881E-002	-9,745680389372582E-004	4,000000000000000E+000
9,8133944E-002	-9,274283725567798E-004	4,000000000000000E+000
1,0214914E-001	-7,790149394269171E-004	4,000000000000000E+000
1,0611235E-001	-7,388078145393433E-004	4,000000000000000E+000
1,1012755E-001	-6,601207852796661E-004	4,000000000000000E+000
1,1414169E-001	-6,335872355217953E-004	4,000000000000000E+000
1,1816325E-001	-5,378488543741433E-004	4,000000000000000E+000
1,2210420E-001	-4,709607888226282E-004	4,000000000000000E+000
1,2607695E-001	-3,957990322507815E-004	4,000000000000000E+000
1,3012503E-001	-3,480698596494795E-004	4,000000000000000E+000
1,3414341E-001	-3,559898343189179E-004	4,000000000000000E+000
1,3813315E-001	-2,790065193410013E-004	4,000000000000000E+000
1,4209741E-001	-1,705996988776960E-004	4,000000000000000E+000
1,4614126E-001	-1,298767787695264E-004	4,000000000000000E+000
1,5009069E-001	-1,147353664700183E-004	4,000000000000000E+000
1,5414515E-001	-2,203294563632557E-005	4,000000000000000E+000
1,5813065E-001	5,324081067320323E-005	4,000000000000000E+000
1,6209491E-001	9,422606423838782E-005	4,000000000000000E+000
1,6612603E-001	1,863507563181588E-004	4,000000000000000E+000
1,7009559E-001	1,670975479905123E-004	4,000000000000000E+000
1,7411080E-001	2,389374340897050E-004	4,000000000000000E+000
1,7811327E-001	2,467955155814839E-004	4,000000000000000E+000
1,8211043E-001	3,128759463598488E-004	4,000000000000000E+000
1,8613093E-001	4,417444057354374E-004	4,000000000000000E+000
1,9012173E-001	3,698485409552594E-004	4,000000000000000E+000
1,9411784E-001	4,379981145306109E-004	4,000000000000000E+000
1,9811603E-001	5,170623318109507E-004	4,000000000000000E+000
2,0211957E-001	5,477695990184325E-004	4,000000000000000E+000
2,0612100E-001	5,844102275592306E-004	4,000000000000000E+000
2,1013089E-001	6,475814753533382E-004	4,000000000000000E+000
2,1409409E-001	7,130016432104927E-004	4,000000000000000E+000
2,1808173E-001	7,910578468260689E-004	4,000000000000000E+000
2,2214149E-001	7,657917057662840E-004	4,000000000000000E+000
2,2610149E-001	9,007379298964259E-004	4,000000000000000E+000
2,3014428E-001	8,908048208853530E-004	4,000000000000000E+000
2,3415099E-001	9,503770947032076E-004	4,000000000000000E+000
2,3810467E-001	1,033222971508860E-003	4,000000000000000E+000
2,4209863E-001	1,030405070600360E-003	4,000000000000000E+000
2,4613613E-001	1,140624729504014E-003	4,000000000000000E+000
2,5012586E-001	1,169858188888200E-003	4,000000000000000E+000
2,5409013E-001	1,341663214656431E-003	4,000000000000000E+000
2,5812444E-001	1,257882823783467E-003	4,000000000000000E+000
2,6213112E-001	1,322194843303945E-003	4,000000000000000E+000
2,6611662E-001	1,481145694814102E-003	4,000000000000000E+000
2,7006921E-001	1,493551850273490E-003	4,000000000000000E+000
2,7416927E-001	1,535474342121975E-003	4,000000000000000E+000
2,7810174E-001	1,596081160216638E-003	4,000000000000000E+000
2,8212968E-001	1,711019643164696E-003	4,000000000000000E+000
2,8614807E-001	1,828952880120794E-003	4,000000000000000E+000
2,9010174E-001	1,876764572384844E-003	4,000000000000000E+000
2,9411054E-001	1,982380001663842E-003	4,000000000000000E+000
2,9813212E-001	2,037619439647639E-003	4,000000000000000E+000
3,0214095E-001	2,111973678505885E-003	4,000000000000000E+000
3,0611265E-001	2,179928557813616E-003	4,000000000000000E+000
3,1010026E-001	2,258839475635557E-003	4,000000000000000E+000
3,1414732E-001	2,441600416204880E-003	4,000000000000000E+000
3,1809250E-001	2,437258880861378E-003	4,000000000000000E+000
3,2210982E-001	2,600165258896867E-003	4,000000000000000E+000
3,2609531E-001	2,704086013653538E-003	4,000000000000000E+000
3,3007228E-001	2,701465676687394E-003	4,000000000000000E+000
3,3408645E-001	2,861504246000013E-003	4,000000000000000E+000
3,3815894E-001	3,003760362776962E-003	4,000000000000000E+000
3,4211579E-001	3,050608248385191E-003	4,000000000000000E+000
3,4610870E-001	3,157947781868689E-003	4,000000000000000E+000
3,5011753E-001	3,224308414414907E-003	4,000000000000000E+000
3,5410163E-001	3,374031241074705E-003	4,000000000000000E+000
3,5811502E-001	3,402037994453192E-003	4,000000000000000E+000
3,6212811E-001	3,504679223018087E-003	4,000000000000000E+000
3,6201990E-001	3,279639035571116E-003	4,000000000000000E+000
3,5800254E-001	2,779787249706997E-003	4,000000000000000E+000
3,5400820E-001	2,379874070106522E-003	4,000000000000000E+000
3,5003689E-001	2,226263673673269E-003	4,000000000000000E+000
3,4598884E-001	1,953285165082322E-003	4,000000000000000E+000
3,4198633E-001	1,825135838085211E-003	4,000000000000000E+000
3,3802104E-001	1,644349799579248E-003	4,000000000000000E+000
3,3401641E-001	1,545861454225682E-003	4,000000000000000E+000
3,2999066E-001	1,412798605180662E-003	4,000000000000000E+000
3,2600406E-001	1,332525835500243E-003	4,000000000000000E+000
3,2194749E-001	1,153912080326336E-003	4,000000000000000E+000
3,1797788E-001	1,068475284051195E-003	4,000000000000000E+000
3,1400302E-001	9,769224177826191E-004	4,000000000000000E+000
3,1003875E-001	8,973541955330996E-004	4,000000000000000E+000
3,0602780E-001	7,772988294029223E-004	4,000000000000000E+000
3,0201262E-001	7,219237827990176E-004	4,000000000000000E+000
2,9802075E-001	6,448608868494278E-004	4,000000000000000E+000
2,9402465E-001	6,163878770798358E-004	4,000000000000000E+000
2,9004338E-001	5,200128119684918E-004	4,000000000000000E+000
2,8605577E-001	5,336333235803695E-004	4,000000000000000E+000
2,8198433E-001	3,979825953529647E-004	4,000000000000000E+000
2,7801368E-001	3,381744954569707E-004	4,000000000000000E+000
2,7404621E-001	2,636759580767558E-004	4,000000000000000E+000
2,7003637E-001	2,229589215856026E-004	4,000000000000000E+000
2,6603070E-001	1,105906826860859E-004	4,000000000000000E+000
2,6205474E-001	1,201936720547196E-004	4,000000000000000E+000
2,5802895E-001	8,537168453467857E-005	4,000000000000000E+000
2,5405195E-001	1,825374455729958E-005	4,000000000000000E+000
2,5006643E-001	-5,157298862614964E-005	4,000000000000000E+000
2,4601732E-001	-6,318325309469729E-005	4,000000000000000E+000
2,4206999E-001	-1,204093540889276E-004	4,000000000000000E+000
2,3799010E-001	-1,124422067951616E-004	4,000000000000000E+000
2,3403220E-001	-2,119032916972942E-004	4,000000000000000E+000
2,3002018E-001	-1,794186882930439E-004	4,000000000000000E+000
2,2598797E-001	-3,288284549988144E-004	4,000000000000000E+000
2,2201948E-001	-2,992058844365937E-004	4,000000000000000E+000
2,1802126E-001	-3,846456165269452E-004	4,000000000000000E+000
2,1401985E-001	-3,660379571678498E-004	4,000000000000000E+000
2,1006724E-001	-5,115127820776826E-004	4,000000000000000E+000
2,0601277E-001	-4,582393067459473E-004	4,000000000000000E+000
2,0202093E-001	-5,235328070469850E-004	4,000000000000000E+000
1,9803755E-001	-5,866981041709497E-004	4,000000000000000E+000
1,9402449E-001	-6,232031067207192E-004	4,000000000000000E+000
1,8997215E-001	-6,382325182467318E-004	4,000000000000000E+000
1,8603124E-001	-6,984768638513194E-004	4,000000000000000E+000
1,8203297E-001	-7,500290102716162E-004	4,000000000000000E+000
1,7804326E-001	-7,235632353546906E-004	4,000000000000000E+000
1,7405456E-001	-8,076235052722411E-004	4,000000000000000E+000
1,7004682E-001	-7,618367851675995E-004	4,000000000000000E+000
1,6599767E-001	-8,760737691941491E-004	4,000000000000000E+000
1,6198671E-001	-9,354308828703872E-004	4,000000000000000E+000
1,5802985E-001	-8,983894028662936E-004	4,000000000000000E+000
1,5408042E-001	-9,847370765446320E-004	4,000000000000000E+000
1,5002067E-001	-1,018987294810573E-003	4,000000000000000E+000
1,4603944E-001	-1,055677898210449E-003	4,000000000000000E+000
1,4204226E-001	-1,091805665617413E-003	4,000000000000000E+000
1,3803236E-001	-1,186397513425550E-003	4,000000000000000E+000
1,3405536E-001	-1,165305007075568E-003	4,000000000000000E+000
1,2999775E-001	-1,171736533989446E-003	4,000000000000000E+000
1,2605254E-001	-1,224620954733131E-003	4,000000000000000E+000
1,2202463E-001	-1,297032577221452E-003	4,000000000000000E+000
1,1799670E-001	-1,285469494733761E-003	4,000000000000000E+000
1,1403135E-001	-1,367720026775252E-003	4,000000000000000E+000
1,1003419E-001	-1,416799134117522E-003	4,000000000000000E+000
1,0602748E-001	-1,451674221664659E-003	4,000000000000000E+000
1,0203033E-001	-1,470685701540921E-003	4,000000000000000E+000
9,8051190E-002	-1,483749134982407E-003	4,000000000000000E+000
9,4041303E-002	-1,509100718286163E-003	4,000000000000000E+000
9,0027168E-002	-1,541785782538650E-003	4,000000000000000E+000
8,6025767E-002	-1,567892015910068E-003	4,000000000000000E+000
8,2010560E-002	-1,676263427673009E-003	4,000000000000000E+000
7,8066438E-002	-1,619668114057261E-003	4,000000000000000E+000
7,4040629E-002	-1,695177663295739E-003	4,000000000000000E+000
7,0009522E-002	-1,730376954633855E-003	4,000000000000000E+000
6,6024028E-002	-1,764565242124429E-003	4,000000000000000E+000
6,4142138E-002	-2,563593493623218E-003	4,000000000000000E+000
6,8118080E-002	-1,911628642957382E-003	4,000000000000000E+000
7,2135404E-002	-1,672696911791045E-003	4,000000000000000E+000
7,6128334E-002	-1,476775223602976E-003	4,000000000000000E+000
8,0178529E-002	-1,347258367993029E-003	4,000000000000000E+000
8,4108867E-002	-1,195561261502682E-003	4,000000000000000E+000
8,8147394E-002	-1,081430386286095E-003	4,000000000000000E+000
9,2133954E-002	-1,036050416856865E-003	4,000000000000000E+000
9,6139602E-002	-9,528773043712135E-004	4,000000000000000E+000
1,0013144E-001	-8,104855947850508E-004	4,000000000000000E+000
1,0412756E-001	-7,825991092431650E-004	4,000000000000000E+000
1,0811836E-001	-6,321518259129431E-004	4,000000000000000E+000
1,1212084E-001	-6,021254379852022E-004	4,000000000000000E+000
1,1614981E-001	-5,571197304595492E-004	4,000000000000000E+000
1,2015016E-001	-4,950980660312243E-004	4,000000000000000E+000
1,2410064E-001	-4,036895666819915E-004	4,000000000000000E+000
1,2813707E-001	-2,753781243680156E-004	4,000000000000000E+000
1,3213953E-001	-3,140171732714709E-004	4,000000000000000E+000
1,3614731E-001	-2,761710118108938E-004	4,000000000000000E+000
1,4013067E-001	-2,330222692526812E-004	4,000000000000000E+000
1,4414056E-001	-1,600741233215994E-004	4,000000000000000E+000
1,4812501E-001	-9,157377244327532E-005	4,000000000000000E+000
1,5212642E-001	-1,670087275400588E-005	4,000000000000000E+000
1,5609598E-001	-2,161731828051764E-005	4,000000000000000E+000
1,6011225E-001	5,654201306613176E-005	4,000000000000000E+000
1,6411893E-001	1,237189259852666E-004	4,000000000000000E+000
1,6816491E-001	1,064435397316391E-004	4,000000000000000E+000
1,7212601E-001	1,606748873099510E-004	4,000000000000000E+000
1,7610621E-001	2,194720220982330E-004	4,000000000000000E+000
1,8011716E-001	2,595671090956679E-004	4,000000000000000E+000
1,8414402E-001	3,405501804241732E-004	4,000000000000000E+000
1,8811679E-001	4,275815617128739E-004	4,000000000000000E+000
1,9214047E-001	4,498088298566516E-004	4,000000000000000E+000
1,9609199E-001	4,896946479843960E-004	4,000000000000000E+000
2,0010082E-001	5,503015119959154E-004	4,000000000000000E+000
2,0412770E-001	5,786065633346703E-004	4,000000000000000E+000
2,0815088E-001	6,630618397667140E-004	4,000000000000000E+000
2,1213903E-001	6,654935293934419E-004	4,000000000000000E+000
2,1610647E-001	8,080856457834476E-004	4,000000000000000E+000
2,2012594E-001	7,873233177667360E-004	4,000000000000000E+000
2,2410080E-001	8,003248770162581E-004	4,000000000000000E+000
2,2813295E-001	8,962901311288414E-004	4,000000000000000E+000
2,3214179E-001	9,243800126383858E-004	4,000000000000000E+000
2,3616864E-001	1,024315564357624E-003	4,000000000000000E+000
2,4013719E-001	1,075670238488212E-003	4,000000000000000E+000
2,4416088E-001	1,159562482103879E-003	4,000000000000000E+000
2,4812730E-001	1,089903754634471E-003	4,000000000000000E+000
2,4933986E-001	2,057220948245231E-003	4,000000000000000E+000