File: fig_si_ecsa/TiO2/200.txt
EC-Lab ASCII FILE
Ewe/V	<I>/mA	cycle number
6,8379074E-002	-5,087280645966530E-002	1,000000000000000E+000
7,3018633E-002	-7,688581706216474E-003	1,000000000000000E+000
7,7055000E-002	-2,760894554078474E-003	1,000000000000000E+000
8,1093103E-002	-6,099752169745898E-004	1,000000000000000E+000
8,5048757E-002	6,145325237903142E-004	1,000000000000000E+000
9,2094943E-002	2,396838643673703E-003	1,000000000000000E+000
9,9034779E-002	3,591344506152061E-003	1,000000000000000E+000
1,0307939E-001	4,066023087406480E-003	1,000000000000000E+000
1,0704674E-001	4,477531623334387E-003	1,000000000000000E+000
1,1104449E-001	5,100185419161615E-003	1,000000000000000E+000
1,1810907E-001	6,134474851203497E-003	1,000000000000000E+000
1,2505220E-001	5,969167396291275E-003	1,000000000000000E+000
1,2906036E-001	6,666249438074534E-003	1,000000000000000E+000
1,3308460E-001	6,518282951550314E-003	1,000000000000000E+000
1,3709013E-001	6,909838753100209E-003	1,000000000000000E+000
1,4105663E-001	6,950795167705864E-003	1,000000000000000E+000
1,4506957E-001	7,367028828329365E-003	1,000000000000000E+000
1,4902216E-001	7,526274452671178E-003	1,000000000000000E+000
1,5306634E-001	7,817258771038615E-003	1,000000000000000E+000
1,5707494E-001	7,708519626579480E-003	1,000000000000000E+000
1,6104014E-001	7,952043193406394E-003	1,000000000000000E+000
1,6504915E-001	8,177205387999681E-003	1,000000000000000E+000
1,6905731E-001	8,554312718677654E-003	1,000000000000000E+000
1,7307112E-001	8,529266577253031E-003	1,000000000000000E+000
1,7702328E-001	8,929489004251723E-003	1,000000000000000E+000
1,8107310E-001	8,721516600251750E-003	1,000000000000000E+000
1,8506868E-001	9,216125025473483E-003	1,000000000000000E+000
1,8903603E-001	9,135949152716261E-003	1,000000000000000E+000
1,9303334E-001	9,436476053699825E-003	1,000000000000000E+000
1,9703674E-001	9,421644647690373E-003	1,000000000000000E+000
2,0104490E-001	9,786359632099395E-003	1,000000000000000E+000
2,0506173E-001	9,737069020709282E-003	1,000000000000000E+000
2,0906772E-001	1,009433119328271E-002	1,000000000000000E+000
2,1304245E-001	1,023298627726699E-002	1,000000000000000E+000
2,1706451E-001	1,042858715779653E-002	1,000000000000000E+000
2,2105661E-001	1,032562888245922E-002	1,000000000000000E+000
2,2506389E-001	1,046754623067424E-002	1,000000000000000E+000
2,2906035E-001	1,055563832911008E-002	1,000000000000000E+000
2,3307541E-001	1,098561002237893E-002	1,000000000000000E+000
2,3704930E-001	1,089798203512064E-002	1,000000000000000E+000
2,4103232E-001	1,135555571967085E-002	1,000000000000000E+000
2,4505563E-001	1,124968845959470E-002	1,000000000000000E+000
2,4908286E-001	1,164174337563134E-002	1,000000000000000E+000
2,5307193E-001	1,162898065310651E-002	1,000000000000000E+000
2,5707185E-001	1,181409886620795E-002	1,000000000000000E+000
2,6106915E-001	1,196032927625558E-002	1,000000000000000E+000
2,6503915E-001	1,229678484973691E-002	1,000000000000000E+000
2,6905945E-001	1,228369655770870E-002	1,000000000000000E+000
2,7306324E-001	1,269818686093704E-002	1,000000000000000E+000
2,7701849E-001	1,283347766961507E-002	1,000000000000000E+000
2,8105527E-001	1,303589363140586E-002	1,000000000000000E+000
2,8507125E-001	1,305921824231604E-002	1,000000000000000E+000
2,8905383E-001	1,329776585010806E-002	1,000000000000000E+000
2,9299816E-001	1,348291865030082E-002	1,000000000000000E+000
2,9704624E-001	1,391944586909881E-002	1,000000000000000E+000
3,0104482E-001	1,392061019727081E-002	1,000000000000000E+000
3,0505562E-001	1,451178994912798E-002	1,000000000000000E+000
3,0904362E-001	1,446788042164332E-002	1,000000000000000E+000
3,1303275E-001	1,497578561358515E-002	1,000000000000000E+000
3,1702438E-001	1,501482285501610E-002	1,000000000000000E+000
3,2105586E-001	1,538671827232902E-002	1,000000000000000E+000
3,2499975E-001	1,553488082240420E-002	1,000000000000000E+000
3,2901835E-001	1,599350723177934E-002	1,000000000000000E+000
3,3302534E-001	1,611450737792719E-002	1,000000000000000E+000
3,3701238E-001	1,660947328618147E-002	1,000000000000000E+000
3,4100652E-001	1,680667189493362E-002	1,000000000000000E+000
3,4504047E-001	1,730413591529059E-002	1,000000000000000E+000
3,4904456E-001	1,730862498421321E-002	1,000000000000000E+000
3,5305446E-001	1,760409958660612E-002	1,000000000000000E+000
3,5699502E-001	1,780853259365170E-002	1,000000000000000E+000
3,6101863E-001	1,832548227131436E-002	1,000000000000000E+000
3,6366004E-001	1,845418941229582E-002	1,000000000000000E+000
3,6005682E-001	5,284239983093580E-004	1,000000000000000E+000
3,5609466E-001	-1,709533457237143E-003	1,000000000000000E+000
3,5210386E-001	-2,696217662678857E-003	1,000000000000000E+000
3,4807119E-001	-3,640944015782938E-003	1,000000000000000E+000
3,4410152E-001	-3,993621752393345E-003	1,000000000000000E+000
3,4008539E-001	-4,580591018368621E-003	1,000000000000000E+000
3,3609796E-001	-5,065929968148572E-003	1,000000000000000E+000
3,3200622E-001	-5,754932238351506E-003	1,000000000000000E+000
3,2806861E-001	-5,720836211643758E-003	1,000000000000000E+000
3,2407740E-001	-6,334372608208738E-003	1,000000000000000E+000
3,2005131E-001	-6,462944261527232E-003	1,000000000000000E+000
3,1607586E-001	-6,893861869763845E-003	1,000000000000000E+000
3,1204194E-001	-6,949134083460325E-003	1,000000000000000E+000
3,0808970E-001	-7,095324500171585E-003	1,000000000000000E+000
3,0411518E-001	-7,226261868709102E-003	1,000000000000000E+000
3,0010229E-001	-7,602161328742862E-003	1,000000000000000E+000
2,9608631E-001	-7,742350317461025E-003	1,000000000000000E+000
2,9209554E-001	-8,072005647095017E-003	1,000000000000000E+000
2,8810337E-001	-8,044273772446223E-003	1,000000000000000E+000
2,8410044E-001	-8,368915106902103E-003	1,000000000000000E+000
2,8010139E-001	-8,204424466136728E-003	1,000000000000000E+000
2,7608630E-001	-8,415506847582438E-003	1,000000000000000E+000
2,7209550E-001	-8,502998174497581E-003	1,000000000000000E+000
2,6811209E-001	-8,819622059242908E-003	1,000000000000000E+000
2,6408482E-001	-8,755746682916010E-003	1,000000000000000E+000
2,6011613E-001	-9,120366643153154E-003	1,000000000000000E+000
2,5612363E-001	-8,957439096610087E-003	1,000000000000000E+000
2,5207165E-001	-9,354586374932028E-003	1,000000000000000E+000
2,4808823E-001	-9,226682552335587E-003	1,000000000000000E+000
2,4411915E-001	-9,513766900785064E-003	1,000000000000000E+000
2,4010663E-001	-9,329431693996306E-003	1,000000000000000E+000
2,3612930E-001	-9,644768523933422E-003	1,000000000000000E+000
2,3215890E-001	-9,555012938934940E-003	1,000000000000000E+000
2,2809215E-001	-9,930687889870775E-003	1,000000000000000E+000
2,2410047E-001	-9,813332406669067E-003	1,000000000000000E+000
2,2006282E-001	-1,001240592449903E-002	1,000000000000000E+000
2,1607766E-001	-1,003267045036239E-002	1,000000000000000E+000
2,1211161E-001	-1,010318063593080E-002	1,000000000000000E+000
2,0809171E-001	-1,015178458874291E-002	1,000000000000000E+000
2,0409006E-001	-1,043912989867257E-002	1,000000000000000E+000
2,0008449E-001	-1,043001355670140E-002	1,000000000000000E+000
1,9608027E-001	-1,071082639513901E-002	1,000000000000000E+000
1,9210467E-001	-1,056676654314449E-002	1,000000000000000E+000
1,8809739E-001	-1,088136579974983E-002	1,000000000000000E+000
1,8409312E-001	-1,070725201895004E-002	1,000000000000000E+000
1,8005456E-001	-1,111377653647982E-002	1,000000000000000E+000
1,7606811E-001	-1,094617546517510E-002	1,000000000000000E+000
1,7209989E-001	-1,121420321677840E-002	1,000000000000000E+000
1,6810821E-001	-1,102588143955718E-002	1,000000000000000E+000
1,6409789E-001	-1,139693329407069E-002	1,000000000000000E+000
1,6008019E-001	-1,133930098628544E-002	1,000000000000000E+000
1,5610936E-001	-1,167073586326629E-002	1,000000000000000E+000
1,5212853E-001	-1,143804872795454E-002	1,000000000000000E+000
1,4811735E-001	-1,156387703039485E-002	1,000000000000000E+000
1,4413173E-001	-1,162925807329883E-002	1,000000000000000E+000
1,4010058E-001	-1,201822356332821E-002	1,000000000000000E+000
1,3608985E-001	-1,186195192332723E-002	1,000000000000000E+000
1,3208732E-001	-1,215585888448083E-002	1,000000000000000E+000
1,2810822E-001	-1,196900500673853E-002	1,000000000000000E+000
1,2410095E-001	-1,233634519832602E-002	1,000000000000000E+000
1,2009279E-001	-1,224970888407287E-002	1,000000000000000E+000
1,1606858E-001	-1,255176205218460E-002	1,000000000000000E+000
1,1207777E-001	-1,243744523857127E-002	1,000000000000000E+000
1,0809696E-001	-1,266786656130782E-002	1,000000000000000E+000
1,0410138E-001	-1,261666594109555E-002	1,000000000000000E+000
1,0011233E-001	-1,300880036135572E-002	1,000000000000000E+000
9,6086375E-002	-1,294326004046356E-002	1,000000000000000E+000
9,2089929E-002	-1,308887478907392E-002	1,000000000000000E+000
8,8113450E-002	-1,300944468841241E-002	1,000000000000000E+000
8,4097482E-002	-1,318119184229123E-002	1,000000000000000E+000
8,0093667E-002	-1,321099925338454E-002	1,000000000000000E+000
7,6080732E-002	-1,361924569358627E-002	1,000000000000000E+000
7,2063461E-002	-1,331313315809391E-002	1,000000000000000E+000
6,8113022E-002	-1,383816416091574E-002	1,000000000000000E+000
6,4096630E-002	-1,359591368501159E-002	1,000000000000000E+000
6,6139571E-002	7,253193084431550E-004	2,000000000000000E+000
7,0181429E-002	2,697725344126455E-003	2,000000000000000E+000
7,4151054E-002	3,098713062132920E-003	2,000000000000000E+000
7,8144349E-002	3,903906444935761E-003	2,000000000000000E+000
8,2143433E-002	4,172184054685040E-003	2,000000000000000E+000
8,6161643E-002	4,596070802108464E-003	2,000000000000000E+000
9,0194359E-002	4,850141118130660E-003	2,000000000000000E+000
9,4191797E-002	5,265072992978792E-003	2,000000000000000E+000
9,8160595E-002	5,510646006096853E-003	2,000000000000000E+000
1,0214394E-001	5,813102875950091E-003	2,000000000000000E+000
1,0615756E-001	5,996282101082440E-003	2,000000000000000E+000
1,1017534E-001	6,197336639873017E-003	2,000000000000000E+000
1,1413582E-001	6,430659941859488E-003	2,000000000000000E+000
1,1817146E-001	6,712529420047263E-003	2,000000000000000E+000
1,2216143E-001	6,836235632758703E-003	2,000000000000000E+000
1,2613811E-001	7,084333986589947E-003	2,000000000000000E+000
1,3016628E-001	7,220531897473854E-003	2,000000000000000E+000
1,3416992E-001	7,473827211430500E-003	2,000000000000000E+000
1,3816239E-001	7,469737366947178E-003	2,000000000000000E+000
1,4215817E-001	7,734831610714171E-003	2,000000000000000E+000
1,4616433E-001	7,867298913681764E-003	2,000000000000000E+000
1,5017007E-001	8,091004006849312E-003	2,000000000000000E+000
1,5417168E-001	8,154172132297244E-003	2,000000000000000E+000
1,5817617E-001	8,415971985691051E-003	2,000000000000000E+000
1,6213416E-001	8,526336310593324E-003	2,000000000000000E+000
1,6612579E-001	8,722462962949734E-003	2,000000000000000E+000
1,7011285E-001	8,784289091873593E-003	2,000000000000000E+000
1,7413685E-001	8,835395803465042E-003	2,000000000000000E+000
1,7813180E-001	9,031564101504692E-003	2,000000000000000E+000
1,8219317E-001	9,182211218301192E-003	2,000000000000000E+000
1,8612793E-001	9,224203329485280E-003	2,000000000000000E+000
1,9012953E-001	9,503678097130291E-003	2,000000000000000E+000
1,9414647E-001	9,552791585440937E-003	2,000000000000000E+000
1,9814268E-001	9,856701813671129E-003	2,000000000000000E+000
2,0219159E-001	9,796342787487235E-003	2,000000000000000E+000
2,0616785E-001	1,008829492971218E-002	2,000000000000000E+000
2,1015865E-001	1,010939461902247E-002	2,000000000000000E+000
2,1419345E-001	1,032699516714355E-002	2,000000000000000E+000
2,1814936E-001	1,038211518591753E-002	2,000000000000000E+000
2,2216260E-001	1,061526586984299E-002	2,000000000000000E+000
2,2614510E-001	1,067935490668197E-002	2,000000000000000E+000
2,3015872E-001	1,091991632742781E-002	2,000000000000000E+000
2,3416655E-001	1,098380449927747E-002	2,000000000000000E+000
2,3818099E-001	1,102499456306839E-002	2,000000000000000E+000
2,4213651E-001	1,125136959308295E-002	2,000000000000000E+000
2,4613976E-001	1,148537839490808E-002	2,000000000000000E+000
2,5020733E-001	1,152636642718397E-002	2,000000000000000E+000
2,5416452E-001	1,185115544744209E-002	2,000000000000000E+000
2,5815409E-001	1,188795734734694E-002	2,000000000000000E+000
2,6220012E-001	1,214036756842374E-002	2,000000000000000E+000
2,6616016E-001	1,221981937724985E-002	2,000000000000000E+000
2,7019039E-001	1,245444382442187E-002	2,000000000000000E+000
2,7414384E-001	1,259816313920412E-002	2,000000000000000E+000
2,7815288E-001	1,284373616094264E-002	2,000000000000000E+000
2,8213915E-001	1,296253626945976E-002	2,000000000000000E+000
2,8618056E-001	1,322747138629377E-002	2,000000000000000E+000
2,9016474E-001	1,339363383933391E-002	2,000000000000000E+000
2,9415303E-001	1,374925191513560E-002	2,000000000000000E+000
2,9816127E-001	1,378394328624027E-002	2,000000000000000E+000
3,0216080E-001	1,394318553977189E-002	2,000000000000000E+000
3,0617094E-001	1,437235244471104E-002	2,000000000000000E+000
3,1016868E-001	1,464526505928510E-002	2,000000000000000E+000
3,1414124E-001	1,478802189822920E-002	2,000000000000000E+000
3,1815591E-001	1,515136960948765E-002	2,000000000000000E+000
3,2210591E-001	1,535228747293746E-002	2,000000000000000E+000
3,2616612E-001	1,567825122070975E-002	2,000000000000000E+000
3,3011007E-001	1,583052945650049E-002	2,000000000000000E+000
3,3413169E-001	1,628282928554242E-002	2,000000000000000E+000
3,3819106E-001	1,648282297554202E-002	2,000000000000000E+000
3,4210289E-001	1,685285377243421E-002	2,000000000000000E+000
3,4610018E-001	1,699810709694499E-002	2,000000000000000E+000
3,5018730E-001	1,749495850923599E-002	2,000000000000000E+000
3,5411215E-001	1,767586519004410E-002	2,000000000000000E+000
3,5814115E-001	1,799281559678179E-002	2,000000000000000E+000
3,6210328E-001	1,821612596474806E-002	2,000000000000000E+000
3,6312529E-001	1,449275388975862E-003	2,000000000000000E+000
3,5905352E-001	-5,240371738444737E-004	2,000000000000000E+000
3,5506773E-001	-1,807150778957928E-003	2,000000000000000E+000
3,5106775E-001	-3,054562686488873E-003	2,000000000000000E+000
3,4706616E-001	-3,692811221140874E-003	2,000000000000000E+000
3,4304094E-001	-4,571276597625518E-003	2,000000000000000E+000
3,3904263E-001	-4,825505974068875E-003	2,000000000000000E+000
3,3509916E-001	-5,497463563781054E-003	2,000000000000000E+000
3,3107066E-001	-5,638588591745757E-003	2,000000000000000E+000
3,2709017E-001	-5,920243177688869E-003	2,000000000000000E+000
3,2304046E-001	-6,206589717887397E-003	2,000000000000000E+000
3,1907415E-001	-6,696025219001867E-003	2,000000000000000E+000
3,1507176E-001	-6,884609707571016E-003	2,000000000000000E+000
3,1108922E-001	-7,294600513847893E-003	2,000000000000000E+000
3,0707809E-001	-7,233605089467063E-003	2,000000000000000E+000
3,0306500E-001	-7,604107562656282E-003	2,000000000000000E+000
2,9910153E-001	-7,484833954218950E-003	2,000000000000000E+000
2,9507947E-001	-7,939361944078295E-003	2,000000000000000E+000
2,9112038E-001	-7,976483878006868E-003	2,000000000000000E+000
2,8709745E-001	-8,264140311852797E-003	2,000000000000000E+000
2,8310797E-001	-8,234600520319692E-003	2,000000000000000E+000
2,7910677E-001	-8,459169098221697E-003	2,000000000000000E+000
2,7511030E-001	-8,620057628583977E-003	2,000000000000000E+000
2,7110258E-001	-8,840487174232040E-003	2,000000000000000E+000
2,6709488E-001	-8,727776577622776E-003	2,000000000000000E+000
2,6310971E-001	-8,800971339786105E-003	2,000000000000000E+000
2,5913364E-001	-8,882232561270242E-003	2,000000000000000E+000
2,5509945E-001	-9,294595923000276E-003	2,000000000000000E+000
2,5109217E-001	-9,169418928732603E-003	2,000000000000000E+000
2,4712002E-001	-9,453689347041827E-003	2,000000000000000E+000
2,4312319E-001	-9,419620856946975E-003	2,000000000000000E+000
2,3917663E-001	-9,682845305591900E-003	2,000000000000000E+000
2,3513159E-001	-9,517616023996145E-003	2,000000000000000E+000
2,3114556E-001	-1,004001424139872E-002	2,000000000000000E+000
2,2709052E-001	-9,798060146997753E-003	2,000000000000000E+000
2,2309147E-001	-1,005497556252520E-002	2,000000000000000E+000
2,1910158E-001	-1,001524211989652E-002	2,000000000000000E+000
2,1506779E-001	-1,026139217041913E-002	2,000000000000000E+000
2,1108525E-001	-1,026829391313103E-002	2,000000000000000E+000
2,0710963E-001	-1,045247160436702E-002	2,000000000000000E+000
2,0312406E-001	-1,028230039644933E-002	2,000000000000000E+000
1,9910808E-001	-1,037997771229793E-002	2,000000000000000E+000
1,9510646E-001	-1,050631961731016E-002	2,000000000000000E+000
1,9109176E-001	-1,084817959715358E-002	2,000000000000000E+000
1,8709965E-001	-1,077423988962516E-002	2,000000000000000E+000
1,8307804E-001	-1,110909636355989E-002	2,000000000000000E+000
1,7906512E-001	-1,085872076857250E-002	2,000000000000000E+000
1,7505220E-001	-1,123830293214597E-002	2,000000000000000E+000
1,7109135E-001	-1,112756655575969E-002	2,000000000000000E+000
1,6706669E-001	-1,139835148850663E-002	2,000000000000000E+000
1,6300818E-001	-1,122621382042283E-002	2,000000000000000E+000
1,5907727E-001	-1,150344416468711E-002	2,000000000000000E+000
1,5511902E-001	-1,150507975762591E-002	2,000000000000000E+000
1,5106834E-001	-1,176864356123340E-002	2,000000000000000E+000
1,4712961E-001	-1,168308539672583E-002	2,000000000000000E+000
1,4307633E-001	-1,200027370081935E-002	2,000000000000000E+000
1,3911504E-001	-1,190375407498898E-002	2,000000000000000E+000
1,3516243E-001	-1,194449351979446E-002	2,000000000000000E+000
1,3112390E-001	-1,208555782250186E-002	2,000000000000000E+000
1,2711355E-001	-1,228578169552330E-002	2,000000000000000E+000
1,2304856E-001	-1,227163020666919E-002	2,000000000000000E+000
1,1907253E-001	-1,248792963749359E-002	2,000000000000000E+000
1,1511037E-001	-1,246739051020992E-002	2,000000000000000E+000
1,1106835E-001	-1,276570370414854E-002	2,000000000000000E+000
1,0711966E-001	-1,250208146682943E-002	2,000000000000000E+000
1,0308893E-001	-1,273402860599825E-002	2,000000000000000E+000
9,9101603E-002	-1,279528610178776E-002	2,000000000000000E+000
9,5125996E-002	-1,309293410601887E-002	2,000000000000000E+000
9,1146916E-002	-1,305330180399654E-002	2,000000000000000E+000
8,7128781E-002	-1,332311026304850E-002	2,000000000000000E+000
8,3118439E-002	-1,331007217347426E-002	2,000000000000000E+000
7,9158902E-002	-1,350605661322001E-002	2,000000000000000E+000
7,5109504E-002	-1,348596606476345E-002	2,000000000000000E+000
7,1094416E-002	-1,338698624203969E-002	2,000000000000000E+000
6,7112297E-002	-1,368537892515387E-002	2,000000000000000E+000
6,3471727E-002	-1,363114019234976E-002	2,000000000000000E+000
6,7170270E-002	1,369547234792604E-003	3,000000000000000E+000
7,1155667E-002	2,650058587871340E-003	3,000000000000000E+000
7,5176768E-002	3,261256293112445E-003	3,000000000000000E+000
7,9179198E-002	4,061432144898527E-003	3,000000000000000E+000
8,3187841E-002	4,216985777178642E-003	3,000000000000000E+000
8,7166607E-002	4,769291762386291E-003	3,000000000000000E+000
9,1205969E-002	4,989148484405057E-003	3,000000000000000E+000
9,5160641E-002	5,435104358896409E-003	3,000000000000000E+000
9,9181339E-002	5,547406159641244E-003	3,000000000000000E+000
1,0317795E-001	5,762612397713543E-003	3,000000000000000E+000
1,0715048E-001	5,974074961436024E-003	3,000000000000000E+000
1,1114169E-001	6,330731498446360E-003	3,000000000000000E+000
1,1518022E-001	6,473392653076573E-003	3,000000000000000E+000
1,1914156E-001	6,758860247788580E-003	3,000000000000000E+000
1,2315933E-001	6,795759216085689E-003	3,000000000000000E+000
1,2717214E-001	7,178394489528735E-003	3,000000000000000E+000
1,3117787E-001	7,206269097166474E-003	3,000000000000000E+000
1,3514586E-001	7,405655772068392E-003	3,000000000000000E+000
1,3917939E-001	7,504158748618123E-003	3,000000000000000E+000
1,4315069E-001	7,819583791664961E-003	3,000000000000000E+000
1,4717510E-001	7,882503043852601E-003	3,000000000000000E+000
1,5114473E-001	8,203250593040778E-003	3,000000000000000E+000
1,5511934E-001	8,121016619359447E-003	3,000000000000000E+000
1,5912965E-001	8,433480040248117E-003	3,000000000000000E+000
1,6314659E-001	8,569533085155054E-003	3,000000000000000E+000
1,6716190E-001	8,695149406538927E-003	3,000000000000000E+000
1,7116763E-001	8,805389605976946E-003	3,000000000000000E+000
1,7511818E-001	8,990105009892793E-003	3,000000000000000E+000
1,7918617E-001	9,007619775492595E-003	3,000000000000000E+000
1,8311138E-001	9,240119812128147E-003	3,000000000000000E+000
1,8718727E-001	9,342643436510759E-003	3,000000000000000E+000
1,9114859E-001	9,603634214648160E-003	3,000000000000000E+000
1,9513772E-001	9,568943628397875E-003	3,000000000000000E+000
1,9915925E-001	9,689687964450786E-003	3,000000000000000E+000
2,0315959E-001	9,871406853483700E-003	3,000000000000000E+000
2,0716660E-001	1,012370578562535E-002	3,000000000000000E+000
2,1116030E-001	1,020164214803475E-002	3,000000000000000E+000
2,1514861E-001	1,040003857760105E-002	3,000000000000000E+000
2,1917719E-001	1,039684879541039E-002	3,000000000000000E+000
2,2316922E-001	1,063962538113554E-002	3,000000000000000E+000
2,2716664E-001	1,070994967022157E-002	3,000000000000000E+000
2,3117407E-001	1,096556299244583E-002	3,000000000000000E+000
2,3516361E-001	1,091184784293192E-002	3,000000000000000E+000
2,3914072E-001	1,111941430376059E-002	3,000000000000000E+000
2,4317345E-001	1,123613093042644E-002	3,000000000000000E+000
2,4717087E-001	1,152689278403517E-002	3,000000000000000E+000
2,5120234E-001	1,153497613109802E-002	3,000000000000000E+000
2,5516823E-001	1,193543036867559E-002	3,000000000000000E+000
2,5915113E-001	1,192575601548338E-002	3,000000000000000E+000
2,6311663E-001	1,203776738380521E-002	3,000000000000000E+000
2,6716012E-001	1,218660174012970E-002	3,000000000000000E+000
2,7114764E-001	1,255967956018618E-002	3,000000000000000E+000
2,7513468E-001	1,261876521232851E-002	3,000000000000000E+000
2,7915952E-001	1,286788769736988E-002	3,000000000000000E+000
2,8314659E-001	1,295595503498874E-002	3,000000000000000E+000
2,8714648E-001	1,327305531563266E-002	3,000000000000000E+000
2,9116344E-001	1,343887096600553E-002	3,000000000000000E+000
2,9517213E-001	1,372474785176048E-002	3,000000000000000E+000
2,9918244E-001	1,388025954024083E-002	3,000000000000000E+000
3,0311552E-001	1,417171363383485E-002	3,000000000000000E+000
3,0715039E-001	1,440189206385345E-002	3,000000000000000E+000
3,1110734E-001	1,459391912100153E-002	3,000000000000000E+000
3,1510684E-001	1,475316453301773E-002	3,000000000000000E+000
3,1912887E-001	1,526125828505348E-002	3,000000000000000E+000
3,2312876E-001	1,538496039426140E-002	3,000000000000000E+000
3,2711434E-001	1,561541086183835E-002	3,000000000000000E+000
3,3114249E-001	1,593443613571505E-002	3,000000000000000E+000
3,3512071E-001	1,632940003715212E-002	3,000000000000000E+000
3,3915359E-001	1,655438190259288E-002	3,000000000000000E+000
3,4313354E-001	1,684777564018575E-002	3,000000000000000E+000
3,4716511E-001	1,708943280275649E-002	3,000000000000000E+000
3,5112166E-001	1,746310272756095E-002	3,000000000000000E+000
3,5512069E-001	1,775349432566814E-002	3,000000000000000E+000
3,5912105E-001	1,803425702217455E-002	3,000000000000000E+000
3,6310524E-001	1,822810040594050E-002	3,000000000000000E+000
3,6211991E-001	2,243098795974158E-003	3,000000000000000E+000
3,5808674E-001	-1,022088428983450E-003	3,000000000000000E+000
3,5406730E-001	-2,381601653427341E-003	3,000000000000000E+000
3,5010391E-001	-3,202496966917781E-003	3,000000000000000E+000
3,4606457E-001	-3,901754859646667E-003	3,000000000000000E+000
3,4204969E-001	-4,489859706036034E-003	3,000000000000000E+000
3,3810326E-001	-5,209054688906610E-003	3,000000000000000E+000
3,3405066E-001	-5,511615778153137E-003	3,000000000000000E+000
3,3003613E-001	-5,841705420211993E-003	3,000000000000000E+000
3,2609102E-001	-6,124453546758342E-003	3,000000000000000E+000
3,2205126E-001	-6,482811997478174E-003	3,000000000000000E+000
3,1806087E-001	-6,672461932201119E-003	3,000000000000000E+000
3,1405681E-001	-6,792210141334763E-003	3,000000000000000E+000
3,1010002E-001	-7,147980592217981E-003	3,000000000000000E+000
3,0609325E-001	-7,603131079039538E-003	3,000000000000000E+000
3,0206123E-001	-7,682764174619050E-003	3,000000000000000E+000
2,9808649E-001	-7,877381151129986E-003	3,000000000000000E+000
2,9407355E-001	-7,996133315414614E-003	3,000000000000000E+000
2,9008055E-001	-8,199613243133091E-003	3,000000000000000E+000
2,8610021E-001	-8,111506809159022E-003	3,000000000000000E+000
2,8206819E-001	-8,507960611082541E-003	3,000000000000000E+000
2,7804485E-001	-8,502230951473228E-003	3,000000000000000E+000
2,7410004E-001	-8,724607858477423E-003	3,000000000000000E+000
2,7011532E-001	-8,664847760635253E-003	3,000000000000000E+000
2,6604030E-001	-8,941514987120786E-003	3,000000000000000E+000
2,6210549E-001	-8,963863369072803E-003	3,000000000000000E+000
2,5808910E-001	-9,128295973989065E-003	3,000000000000000E+000
2,5408527E-001	-9,149696591355803E-003	3,000000000000000E+000
2,5009623E-001	-9,214172999484363E-003	3,000000000000000E+000
2,4608371E-001	-9,374475317020944E-003	3,000000000000000E+000
2,4211246E-001	-9,642532426534511E-003	3,000000000000000E+000
2,3806958E-001	-9,576644377375515E-003	3,000000000000000E+000
2,3407660E-001	-9,767116742791959E-003	3,000000000000000E+000
2,3006150E-001	-9,760554135358396E-003	3,000000000000000E+000
2,2607766E-001	-9,999483815673459E-003	3,000000000000000E+000
2,2208945E-001	-9,989211107908458E-003	3,000000000000000E+000
2,1807262E-001	-1,007708480938166E-002	3,000000000000000E+000
2,1407750E-001	-1,019067139449442E-002	3,000000000000000E+000
2,1007715E-001	-1,045647952245912E-002	3,000000000000000E+000
2,0608807E-001	-1,033463022659731E-002	3,000000000000000E+000
2,0209554E-001	-1,057300329226891E-002	3,000000000000000E+000
1,9811386E-001	-1,052547748672208E-002	3,000000000000000E+000
1,9408226E-001	-1,068720469596549E-002	3,000000000000000E+000
1,9006586E-001	-1,073398506874082E-002	3,000000000000000E+000
1,8609241E-001	-1,075736135002933E-002	3,000000000000000E+000
1,8208946E-001	-1,094933732085998E-002	3,000000000000000E+000
1,7806438E-001	-1,114757803456580E-002	3,000000000000000E+000
1,7410570E-001	-1,105428524913965E-002	3,000000000000000E+000
1,7003027E-001	-1,127656044330005E-002	3,000000000000000E+000
1,6611022E-001	-1,129461202105048E-002	3,000000000000000E+000
1,6205607E-001	-1,146692984779783E-002	3,000000000000000E+000
1,5807350E-001	-1,139987142563439E-002	3,000000000000000E+000
1,5414433E-001	-1,148436629690960E-002	3,000000000000000E+000
1,5007325E-001	-1,167017059593820E-002	3,000000000000000E+000
1,4609849E-001	-1,182061138454377E-002	3,000000000000000E+000
1,4207387E-001	-1,189860998949203E-002	3,000000000000000E+000
1,3807786E-001	-1,207737536242347E-002	3,000000000000000E+000
1,3411048E-001	-1,200353652414127E-002	3,000000000000000E+000
1,3011535E-001	-1,224846468754878E-002	3,000000000000000E+000
1,2610416E-001	-1,221618969314223E-002	3,000000000000000E+000
1,2209035E-001	-1,224595332397174E-002	3,000000000000000E+000
1,1807526E-001	-1,238986175568155E-002	3,000000000000000E+000
1,1409401E-001	-1,257657078729772E-002	3,000000000000000E+000
1,1010539E-001	-1,259516393904714E-002	3,000000000000000E+000
1,0609418E-001	-1,284657431179681E-002	3,000000000000000E+000
1,0207909E-001	-1,279118439842106E-002	3,000000000000000E+000
9,8113887E-002	-1,302879734612358E-002	3,000000000000000E+000
9,4141759E-002	-1,301388668748998E-002	3,000000000000000E+000
9,0109281E-002	-1,317718404871726E-002	3,000000000000000E+000
8,6139321E-002	-1,317241599777345E-002	3,000000000000000E+000
8,2115538E-002	-1,332834138553482E-002	3,000000000000000E+000
7,8127339E-002	-1,346034031451962E-002	3,000000000000000E+000
7,4100524E-002	-1,360047137909115E-002	3,000000000000000E+000
7,0110157E-002	-1,352401356085797E-002	3,000000000000000E+000
6,6091157E-002	-1,381145956061532E-002	3,000000000000000E+000
6,4104736E-002	2,168588394970757E-003	4,000000000000000E+000
6,8209685E-002	2,149266959369685E-003	4,000000000000000E+000
7,2138220E-002	2,842227323645086E-003	4,000000000000000E+000
7,6157667E-002	3,641143827656429E-003	4,000000000000000E+000
8,0181673E-002	3,931089113077338E-003	4,000000000000000E+000
8,4147975E-002	4,234923141666506E-003	4,000000000000000E+000
8,8160351E-002	4,591544746804371E-003	4,000000000000000E+000
9,2170246E-002	5,089962903224197E-003	4,000000000000000E+000
9,6178897E-002	5,211364883981995E-003	4,000000000000000E+000
1,0016513E-001	5,807040664164924E-003	4,000000000000000E+000
1,0413641E-001	5,912041644715725E-003	4,000000000000000E+000
1,0811185E-001	6,231592049595735E-003	4,000000000000000E+000
1,1213502E-001	6,199197666200765E-003	4,000000000000000E+000
1,1616194E-001	6,608247914181950E-003	4,000000000000000E+000
1,2015066E-001	6,570338595496591E-003	4,000000000000000E+000
1,2419169E-001	6,974177586016608E-003	4,000000000000000E+000
1,2816797E-001	7,034625771468683E-003	4,000000000000000E+000
1,3217287E-001	7,370348740511443E-003	4,000000000000000E+000
1,3617736E-001	7,394355039334360E-003	4,000000000000000E+000
1,4016733E-001	7,679739653489684E-003	4,000000000000000E+000
1,4415854E-001	7,634764629825534E-003	4,000000000000000E+000
1,4819583E-001	7,832407241870037E-003	4,000000000000000E+000
1,5214679E-001	7,987808272999913E-003	4,000000000000000E+000
1,5610936E-001	8,378201448383915E-003	4,000000000000000E+000
1,6015786E-001	8,221076977703065E-003	4,000000000000000E+000
1,6412249E-001	8,642146663434047E-003	4,000000000000000E+000
1,6815729E-001	8,588701620006467E-003	4,000000000000000E+000
1,7212112E-001	8,957911360203484E-003	4,000000000000000E+000
1,7611979E-001	8,856890164600395E-003	4,000000000000000E+000
1,8011309E-001	9,277973518217797E-003	4,000000000000000E+000
1,8417904E-001	9,118759277597505E-003	4,000000000000000E+000
1,8810259E-001	9,511691404401591E-003	4,000000000000000E+000
1,9217642E-001	9,356934203226586E-003	4,000000000000000E+000
1,9613814E-001	9,794930775609376E-003	4,000000000000000E+000
2,0012395E-001	9,724565931126403E-003	4,000000000000000E+000
2,0412305E-001	1,000055298984239E-002	4,000000000000000E+000
2,0814249E-001	9,936021311580667E-003	4,000000000000000E+000
2,1212251E-001	1,008152663100353E-002	4,000000000000000E+000
2,1617267E-001	1,016230706860054E-002	4,000000000000000E+000
2,2015849E-001	1,055662371246674E-002	4,000000000000000E+000
2,2412519E-001	1,049679834424117E-002	4,000000000000000E+000
2,2813924E-001	1,082884609375313E-002	4,000000000000000E+000
2,3219687E-001	1,076198280719363E-002	4,000000000000000E+000
2,3616983E-001	1,115289395744662E-002	4,000000000000000E+000
2,4015398E-001	1,105974777063870E-002	4,000000000000000E+000
2,4415348E-001	1,141030065801997E-002	4,000000000000000E+000
2,4817583E-001	1,132636446962591E-002	4,000000000000000E+000
2,5215876E-001	1,162033063741078E-002	4,000000000000000E+000
2,5617152E-001	1,163364474094757E-002	4,000000000000000E+000
2,6016691E-001	1,207162834686208E-002	4,000000000000000E+000
2,6417059E-001	1,209149613461470E-002	4,000000000000000E+000
2,6814395E-001	1,240074932945352E-002	4,000000000000000E+000
2,7212727E-001	1,245498385216471E-002	4,000000000000000E+000
2,7620482E-001	1,258311924396799E-002	4,000000000000000E+000
2,8014663E-001	1,272078361627951E-002	4,000000000000000E+000
2,8415486E-001	1,323111859259685E-002	4,000000000000000E+000
2,8816807E-001	1,316796394736314E-002	4,000000000000000E+000
2,9211861E-001	1,360638389641000E-002	4,000000000000000E+000
2,9614052E-001	1,363025860906503E-002	4,000000000000000E+000
3,0019030E-001	1,409827544035658E-002	4,000000000000000E+000
3,0411717E-001	1,410444102863112E-002	4,000000000000000E+000
3,0812511E-001	1,443667020546197E-002	4,000000000000000E+000
3,1212893E-001	1,450468476915295E-002	4,000000000000000E+000
3,1611884E-001	1,496282255555509E-002	4,000000000000000E+000
3,2013914E-001	1,508189339438104E-002	4,000000000000000E+000
3,2409179E-001	1,557823814420611E-002	4,000000000000000E+000
3,2810125E-001	1,570815359049116E-002	4,000000000000000E+000
3,3208379E-001	1,611599497085663E-002	4,000000000000000E+000
3,3615443E-001	1,620974345876847E-002	4,000000000000000E+000
3,4009576E-001	1,654551871599158E-002	4,000000000000000E+000
3,4409913E-001	1,671490701731032E-002	4,000000000000000E+000
3,4813029E-001	1,727496262984377E-002	4,000000000000000E+000
3,5212278E-001	1,738980767583022E-002	4,000000000000000E+000
3,5611016E-001	1,792344785380096E-002	4,000000000000000E+000
3,6008665E-001	1,795974535426384E-002	4,000000000000000E+000
3,6352637E-001	1,809638366103172E-002	4,000000000000000E+000
3,6108547E-001	1,383325456389606E-003	4,000000000000000E+000
3,5701954E-001	-1,452494176626948E-003	4,000000000000000E+000
3,5304162E-001	-2,585237431029102E-003	4,000000000000000E+000
3,4906077E-001	-3,478947802250328E-003	4,000000000000000E+000
3,4507781E-001	-4,249941093170792E-003	4,000000000000000E+000
3,4107792E-001	-4,625088204469940E-003	4,000000000000000E+000
3,3706844E-001	-5,227283050613624E-003	4,000000000000000E+000
3,3303738E-001	-5,681743297195077E-003	4,000000000000000E+000
3,2905114E-001	-6,052371869531184E-003	4,000000000000000E+000
3,2505286E-001	-6,254526739449671E-003	4,000000000000000E+000
3,2106951E-001	-6,634621973796134E-003	4,000000000000000E+000
3,1705382E-001	-6,762598608158584E-003	4,000000000000000E+000
3,1305516E-001	-7,064384273452656E-003	4,000000000000000E+000
3,0902413E-001	-7,319838493972580E-003	4,000000000000000E+000
3,0509555E-001	-7,703897162834650E-003	4,000000000000000E+000
3,0110210E-001	-7,588538141052675E-003	4,000000000000000E+000
2,9707012E-001	-7,878879078651306E-003	4,000000000000000E+000
2,9307196E-001	-8,045402952451347E-003	4,000000000000000E+000
2,8910631E-001	-8,094078742859959E-003	4,000000000000000E+000
2,8510857E-001	-8,259770493416644E-003	4,000000000000000E+000
2,8104833E-001	-8,464790645947767E-003	4,000000000000000E+000
2,7709049E-001	-8,439533726232185E-003	4,000000000000000E+000
2,7310362E-001	-8,738744321652253E-003	4,000000000000000E+000
2,6906335E-001	-8,753749878120581E-003	4,000000000000000E+000
2,6508558E-001	-8,964029212372465E-003	4,000000000000000E+000
2,6107132E-001	-9,008885044336612E-003	4,000000000000000E+000
2,5710702E-001	-9,217060506009817E-003	4,000000000000000E+000
2,5306758E-001	-9,234250415416159E-003	4,000000000000000E+000
2,4911152E-001	-9,414968434446752E-003	4,000000000000000E+000
2,4509685E-001	-9,400881973802316E-003	4,000000000000000E+000
2,4107656E-001	-9,616240836625038E-003	4,000000000000000E+000
2,3710528E-001	-9,579119533389718E-003	4,000000000000000E+000
2,3311536E-001	-9,903246789607772E-003	4,000000000000000E+000
2,2907683E-001	-9,799419504402468E-003	4,000000000000000E+000
2,2509122E-001	-9,847668819433705E-003	4,000000000000000E+000
2,2106095E-001	-9,966110006313422E-003	4,000000000000000E+000
2,1710008E-001	-1,027171622296338E-002	4,000000000000000E+000
2,1307023E-001	-1,018355226386283E-002	4,000000000000000E+000
2,0910679E-001	-1,035509719374445E-002	4,000000000000000E+000
2,0508602E-001	-1,045765055410315E-002	4,000000000000000E+000
2,0107701E-001	-1,064292826992060E-002	4,000000000000000E+000
1,9709185E-001	-1,059968454600571E-002	4,000000000000000E+000
1,9310324E-001	-1,079603781264188E-002	4,000000000000000E+000
1,8910766E-001	-1,071945775765925E-002	4,000000000000000E+000
1,8508777E-001	-1,084146588883331E-002	4,000000000000000E+000
1,8107180E-001	-1,096576022080795E-002	4,000000000000000E+000
1,7706496E-001	-1,114983588922768E-002	4,000000000000000E+000
1,7312926E-001	-1,104998051745162E-002	4,000000000000000E+000
1,6909941E-001	-1,127874541072568E-002	4,000000000000000E+000
1,6508691E-001	-1,137017166266474E-002	4,000000000000000E+000
1,6109091E-001	-1,145454402202712E-002	4,000000000000000E+000
1,5709925E-001	-1,156215490101947E-002	4,000000000000000E+000
1,5309803E-001	-1,170612096079404E-002	4,000000000000000E+000
1,4910983E-001	-1,163417752832173E-002	4,000000000000000E+000
1,4513680E-001	-1,196950386441707E-002	4,000000000000000E+000
1,4111131E-001	-1,192918517451535E-002	4,000000000000000E+000
1,3709231E-001	-1,215665437154137E-002	4,000000000000000E+000
1,3308327E-001	-1,214451444419947E-002	4,000000000000000E+000
1,2913285E-001	-1,228919597699790E-002	4,000000000000000E+000
1,2506826E-001	-1,232295407713867E-002	4,000000000000000E+000
1,2111261E-001	-1,231370813448771E-002	4,000000000000000E+000
1,1709232E-001	-1,240132195826761E-002	4,000000000000000E+000
1,1309804E-001	-1,273621420775513E-002	4,000000000000000E+000
1,0911679E-001	-1,251122520245022E-002	4,000000000000000E+000
1,0508433E-001	-1,283486754966194E-002	4,000000000000000E+000
1,0108615E-001	-1,293716844752039E-002	4,000000000000000E+000
9,7090580E-002	-1,295996540135420E-002	4,000000000000000E+000
9,3076348E-002	-1,302689440390992E-002	4,000000000000000E+000
8,9148469E-002	-1,327340712867395E-002	4,000000000000000E+000
8,5079998E-002	-1,328709513572073E-002	4,000000000000000E+000
8,1147350E-002	-1,335105142011755E-002	4,000000000000000E+000
7,7126615E-002	-1,352468713742960E-002	4,000000000000000E+000
7,3086768E-002	-1,365010927987562E-002	4,000000000000000E+000
6,9093369E-002	-1,368951046325406E-002	4,000000000000000E+000
6,5136857E-002	-1,379537741079473E-002	4,000000000000000E+000
6,5154530E-002	8,507351704228293E-004	4,000000000000000E+000
6,9171481E-002	2,199584221334983E-003	4,000000000000000E+000
7,3150657E-002	3,131438938117240E-003	4,000000000000000E+000
7,7141449E-002	3,491984503299413E-003	4,000000000000000E+000
8,1183724E-002	4,119672853923246E-003	4,000000000000000E+000
8,5139647E-002	4,503726779385847E-003	4,000000000000000E+000
8,9201845E-002	4,878189003568928E-003	4,000000000000000E+000
9,3170241E-002	4,997992506105213E-003	4,000000000000000E+000
9,7169332E-002	5,237350849236697E-003	4,000000000000000E+000
1,0117964E-001	5,519607658757392E-003	4,000000000000000E+000
1,0516919E-001	6,055969416237247E-003	4,000000000000000E+000
1,0916622E-001	6,062398348781833E-003	4,000000000000000E+000
1,1310347E-001	6,431559553912734E-003	4,000000000000000E+000
1,1714782E-001	6,496368067493472E-003	4,000000000000000E+000
1,2115812E-001	6,832844784936315E-003	4,000000000000000E+000
1,2515225E-001	6,746811998274788E-003	4,000000000000000E+000
1,2914510E-001	7,311768670858643E-003	4,000000000000000E+000
1,3317825E-001	7,215570021324558E-003	4,000000000000000E+000
1,3715617E-001	7,598398975618648E-003	4,000000000000000E+000
1,4115570E-001	7,523341487325030E-003	4,000000000000000E+000
1,4517555E-001	7,936162314091083E-003	4,000000000000000E+000
1,4918254E-001	7,894731004062544E-003	4,000000000000000E+000
1,5320240E-001	8,186275243687063E-003	4,000000000000000E+000
1,5715624E-001	8,062879874436740E-003	4,000000000000000E+000
1,6114332E-001	8,307414295537163E-003	4,000000000000000E+000
1,6507849E-001	8,493015421149538E-003	4,000000000000000E+000
1,6915105E-001	8,843976167079992E-003	4,000000000000000E+000
1,7321368E-001	8,717134650910584E-003	4,000000000000000E+000
1,7716835E-001	9,065300167845708E-003	4,000000000000000E+000
1,8111473E-001	8,986568342231271E-003	4,000000000000000E+000
1,8514042E-001	9,341314564865255E-003	4,000000000000000E+000
1,8919100E-001	9,270741918716463E-003	4,000000000000000E+000
1,9314940E-001	9,543822540012042E-003	4,000000000000000E+000
1,9711570E-001	9,565628448162111E-003	4,000000000000000E+000
2,0113888E-001	9,911101618142681E-003	4,000000000000000E+000
2,0514710E-001	9,826321222135441E-003	4,000000000000000E+000
2,0912629E-001	1,015718641650419E-002	4,000000000000000E+000
2,1311624E-001	1,016545640912073E-002	4,000000000000000E+000
2,1713944E-001	1,041356107231445E-002	4,000000000000000E+000
2,2112732E-001	1,037248209072661E-002	4,000000000000000E+000
2,2512852E-001	1,056804249895758E-002	4,000000000000000E+000
2,2916038E-001	1,066912636056458E-002	4,000000000000000E+000
2,3319273E-001	1,097544456791620E-002	4,000000000000000E+000
2,3716150E-001	1,093327268767022E-002	4,000000000000000E+000
2,4118094E-001	1,125175060999187E-002	4,000000000000000E+000
2,4518503E-001	1,126927936797001E-002	4,000000000000000E+000
2,4892414E-001	1,171578259555436E-002	4,000000000000000E+000
2,4945444E-001	1,159858889877796E-002	4,000000000000000E+000