File: fig_si_ecsa/TiO2/300.txt
EC-Lab ASCII FILE
Ewe/V	<I>/mA	cycle number
7,1109623E-002	-4,419674724340439E-002	1,000000000000000E+000
7,5847007E-002	-8,518789804505426E-003	1,000000000000000E+000
8,0087304E-002	1,498569212787973E-003	1,000000000000000E+000
8,4041819E-002	1,876683969870410E-003	1,000000000000000E+000
8,8078454E-002	3,610384243317340E-003	1,000000000000000E+000
9,2063516E-002	4,509905273759315E-003	1,000000000000000E+000
9,6065134E-002	5,808700631617578E-003	1,000000000000000E+000
1,0006168E-001	6,157274302737877E-003	1,000000000000000E+000
1,1306899E-001	7,974932670549634E-003	1,000000000000000E+000
1,1706616E-001	8,310931684536661E-003	1,000000000000000E+000
1,2106524E-001	8,857911524804279E-003	1,000000000000000E+000
1,2505667E-001	9,040238243990965E-003	1,000000000000000E+000
1,2905128E-001	9,663416781707679E-003	1,000000000000000E+000
1,3307518E-001	9,612051580188588E-003	1,000000000000000E+000
1,3702461E-001	1,007604014685057E-002	1,000000000000000E+000
1,4550471E-001	1,139733889675412E-002	1,000000000000000E+000
1,5403992E-001	1,121380952026813E-002	1,000000000000000E+000
1,5804790E-001	1,175202375428250E-002	1,000000000000000E+000
1,6197951E-001	1,174020348480553E-002	1,000000000000000E+000
1,6604415E-001	1,206753315297346E-002	1,000000000000000E+000
1,7007761E-001	1,195424904447774E-002	1,000000000000000E+000
1,7398308E-001	1,226695769328223E-002	1,000000000000000E+000
1,7805918E-001	1,234274227535934E-002	1,000000000000000E+000
1,8208052E-001	1,284666271773557E-002	1,000000000000000E+000
1,8602040E-001	1,282637316520172E-002	1,000000000000000E+000
1,9000293E-001	1,320404320613305E-002	1,000000000000000E+000
1,9407202E-001	1,312804737353873E-002	1,000000000000000E+000
1,9801955E-001	1,374650180853979E-002	1,000000000000000E+000
2,0201543E-001	1,356384294085727E-002	1,000000000000000E+000
2,0608069E-001	1,403425290967183E-002	1,000000000000000E+000
2,1003838E-001	1,389475956045017E-002	1,000000000000000E+000
2,1401837E-001	1,437276739112958E-002	1,000000000000000E+000
2,1804991E-001	1,410133632392296E-002	1,000000000000000E+000
2,2199807E-001	1,473475304786309E-002	1,000000000000000E+000
2,2601813E-001	1,463006505121789E-002	1,000000000000000E+000
2,3007451E-001	1,525439814140556E-002	1,000000000000000E+000
2,3403031E-001	1,506206276644664E-002	1,000000000000000E+000
2,3801918E-001	1,502662102745184E-002	1,000000000000000E+000
2,4204816E-001	1,527640644696174E-002	1,000000000000000E+000
2,4605612E-001	1,591983981816153E-002	1,000000000000000E+000
2,5005651E-001	1,559418575088783E-002	1,000000000000000E+000
2,5406381E-001	1,635188069109673E-002	1,000000000000000E+000
2,5801262E-001	1,639005768617310E-002	1,000000000000000E+000
2,6202887E-001	1,679274824673481E-002	1,000000000000000E+000
2,6606488E-001	1,652785242889276E-002	1,000000000000000E+000
2,7001366E-001	1,702313493466743E-002	1,000000000000000E+000
2,7400321E-001	1,720252606161621E-002	1,000000000000000E+000
2,7803028E-001	1,761621041502322E-002	1,000000000000000E+000
2,8199944E-001	1,747416903490383E-002	1,000000000000000E+000
2,8602713E-001	1,801569523183083E-002	1,000000000000000E+000
2,9002371E-001	1,810574141042404E-002	1,000000000000000E+000
2,9399028E-001	1,869168362827631E-002	1,000000000000000E+000
2,9801929E-001	1,872220125478635E-002	1,000000000000000E+000
3,0205080E-001	1,900229082069330E-002	1,000000000000000E+000
3,0602506E-001	1,949540852001519E-002	1,000000000000000E+000
3,1003812E-001	1,967781207470880E-002	1,000000000000000E+000
3,1403086E-001	1,986229562511052E-002	1,000000000000000E+000
3,1800511E-001	2,039802830452880E-002	1,000000000000000E+000
3,2204169E-001	2,061818782797981E-002	1,000000000000000E+000
3,2599244E-001	2,122450368115097E-002	1,000000000000000E+000
3,3001822E-001	2,132299526541223E-002	1,000000000000000E+000
3,3407712E-001	2,216368897764673E-002	1,000000000000000E+000
3,3799025E-001	2,209849516851442E-002	1,000000000000000E+000
3,4201097E-001	2,254711084581989E-002	1,000000000000000E+000
3,4603298E-001	2,267964177347803E-002	1,000000000000000E+000
3,4995818E-001	2,334550901262761E-002	1,000000000000000E+000
3,5406610E-001	2,386723185409212E-002	1,000000000000000E+000
3,5806078E-001	2,453254623445289E-002	1,000000000000000E+000
3,6200190E-001	2,449042114118738E-002	1,000000000000000E+000
3,6334872E-001	1,198551851727367E-003	1,000000000000000E+000
3,5904348E-001	-3,477194804493882E-003	1,000000000000000E+000
3,5507622E-001	-4,289641848966602E-003	1,000000000000000E+000
3,5109118E-001	-5,450832926423288E-003	1,000000000000000E+000
3,4708381E-001	-6,454639806482504E-003	1,000000000000000E+000
3,4312546E-001	-7,530326078934488E-003	1,000000000000000E+000
3,3910540E-001	-8,077051235765492E-003	1,000000000000000E+000
3,3509296E-001	-8,771269820075173E-003	1,000000000000000E+000
3,3107480E-001	-9,098026732984460E-003	1,000000000000000E+000
3,2706174E-001	-9,296687175568252E-003	1,000000000000000E+000
3,2306328E-001	-9,858013200088549E-003	1,000000000000000E+000
3,1908080E-001	-1,009139324463225E-002	1,000000000000000E+000
3,1505114E-001	-1,034684399892287E-002	1,000000000000000E+000
3,1103423E-001	-1,106088476468964E-002	1,000000000000000E+000
3,0711985E-001	-1,108335858552884E-002	1,000000000000000E+000
3,0305073E-001	-1,153592070028633E-002	1,000000000000000E+000
2,9912803E-001	-1,138392747561739E-002	1,000000000000000E+000
2,9513407E-001	-1,177307812067735E-002	1,000000000000000E+000
2,9109490E-001	-1,170731096923794E-002	1,000000000000000E+000
2,8713974E-001	-1,199083887404410E-002	1,000000000000000E+000
2,8310817E-001	-1,207821018821653E-002	1,000000000000000E+000
2,7904168E-001	-1,235488260657196E-002	1,000000000000000E+000
2,7515078E-001	-1,252234677558589E-002	1,000000000000000E+000
2,7111357E-001	-1,280954558509009E-002	1,000000000000000E+000
2,6706672E-001	-1,259420478224152E-002	1,000000000000000E+000
2,6314339E-001	-1,278242388119302E-002	1,000000000000000E+000
2,5908893E-001	-1,309680878451519E-002	1,000000000000000E+000
2,5509876E-001	-1,326834789530645E-002	1,000000000000000E+000
2,5110099E-001	-1,316584409845140E-002	1,000000000000000E+000
2,4711591E-001	-1,341811145430255E-002	1,000000000000000E+000
2,4311239E-001	-1,333093045044120E-002	1,000000000000000E+000
2,3910058E-001	-1,373056558356126E-002	1,000000000000000E+000
2,3511359E-001	-1,380047153446262E-002	1,000000000000000E+000
2,3111519E-001	-1,406854889173700E-002	1,000000000000000E+000
2,2711991E-001	-1,384993974461388E-002	1,000000000000000E+000
2,2314057E-001	-1,419314411286901E-002	1,000000000000000E+000
2,1904410E-001	-1,424029998330900E-002	1,000000000000000E+000
2,1509023E-001	-1,436784467199073E-002	1,000000000000000E+000
2,1109815E-001	-1,455570311724538E-002	1,000000000000000E+000
2,0705134E-001	-1,460347456813904E-002	1,000000000000000E+000
2,0310001E-001	-1,468776848038636E-002	1,000000000000000E+000
1,9907483E-001	-1,452108989736492E-002	1,000000000000000E+000
1,9507386E-001	-1,466276856117475E-002	1,000000000000000E+000
1,9114098E-001	-1,525756173820504E-002	1,000000000000000E+000
1,8711710E-001	-1,502936001694860E-002	1,000000000000000E+000
1,8308873E-001	-1,526798237864568E-002	1,000000000000000E+000
1,7909475E-001	-1,527831699677328E-002	1,000000000000000E+000
1,7505686E-001	-1,554463360565328E-002	1,000000000000000E+000
1,7107114E-001	-1,557156464320235E-002	1,000000000000000E+000
1,6713190E-001	-1,562559581264694E-002	1,000000000000000E+000
1,6306725E-001	-1,562283706989545E-002	1,000000000000000E+000
1,5907522E-001	-1,587538176718223E-002	1,000000000000000E+000
1,5511750E-001	-1,591109843260093E-002	1,000000000000000E+000
1,5109487E-001	-1,627529187062465E-002	1,000000000000000E+000
1,4710154E-001	-1,622045361703683E-002	1,000000000000000E+000
1,4311776E-001	-1,664158488141157E-002	1,000000000000000E+000
1,3909447E-001	-1,641573933605586E-002	1,000000000000000E+000
1,3509476E-001	-1,639659723502215E-002	1,000000000000000E+000
1,3113324E-001	-1,649529998200400E-002	1,000000000000000E+000
1,2710808E-001	-1,690202345877573E-002	1,000000000000000E+000
1,2302753E-001	-1,700174616113747E-002	1,000000000000000E+000
1,1917740E-001	-1,711761931534665E-002	1,000000000000000E+000
1,1509494E-001	-1,711594317578900E-002	1,000000000000000E+000
1,1108759E-001	-1,731205570928676E-002	1,000000000000000E+000
1,0712798E-001	-1,729866491865931E-002	1,000000000000000E+000
1,0311491E-001	-1,729821976744759E-002	1,000000000000000E+000
9,9098019E-002	-1,752173141115537E-002	1,000000000000000E+000
9,5159404E-002	-1,797896300752960E-002	1,000000000000000E+000
9,1132969E-002	-1,790614971226506E-002	1,000000000000000E+000
8,7105893E-002	-1,803885063648827E-002	1,000000000000000E+000
8,3143093E-002	-1,818010455875380E-002	1,000000000000000E+000
7,9107113E-002	-1,848797551174358E-002	1,000000000000000E+000
7,5050749E-002	-1,837874438485115E-002	1,000000000000000E+000
7,1145877E-002	-1,827585901422325E-002	1,000000000000000E+000
6,7088246E-002	-1,856658213910119E-002	1,000000000000000E+000
6,3662671E-002	-1,843731477856636E-002	1,000000000000000E+000
6,5333448E-002	-1,677324008649814E-003	2,000000000000000E+000
6,9218583E-002	3,769995856752459E-003	2,000000000000000E+000
7,3237389E-002	5,943269794806832E-003	2,000000000000000E+000
7,7237733E-002	6,004856904413225E-003	2,000000000000000E+000
8,1262901E-002	7,017874607239112E-003	2,000000000000000E+000
8,5273430E-002	7,367488017371230E-003	2,000000000000000E+000
8,9261048E-002	7,999228352855443E-003	2,000000000000000E+000
9,3274131E-002	7,914276041265128E-003	2,000000000000000E+000
9,7212091E-002	8,285579026899831E-003	2,000000000000000E+000
1,0124363E-001	8,703463534645059E-003	2,000000000000000E+000
1,0528089E-001	9,093675651941663E-003	2,000000000000000E+000
1,0923032E-001	9,231110037702217E-003	2,000000000000000E+000
1,1322621E-001	9,889866431816122E-003	2,000000000000000E+000
1,1723356E-001	9,764463936638407E-003	2,000000000000000E+000
1,2121099E-001	1,038213488742867E-002	2,000000000000000E+000
1,2525716E-001	1,020210736848337E-002	2,000000000000000E+000
1,2925941E-001	1,114434965105224E-002	2,000000000000000E+000
1,3324958E-001	1,090118624633765E-002	2,000000000000000E+000
1,3723911E-001	1,109747021534230E-002	2,000000000000000E+000
1,4125027E-001	1,102353137115034E-002	2,000000000000000E+000
1,4523470E-001	1,159631651280509E-002	2,000000000000000E+000
1,4923060E-001	1,163627802234260E-002	2,000000000000000E+000
1,5323284E-001	1,194784093070966E-002	2,000000000000000E+000
1,5721154E-001	1,191078735622186E-002	2,000000000000000E+000
1,6119280E-001	1,198088346670070E-002	2,000000000000000E+000
1,6521543E-001	1,215051214906758E-002	2,000000000000000E+000
1,6916487E-001	1,259070222877201E-002	2,000000000000000E+000
1,7322503E-001	1,253465418243044E-002	2,000000000000000E+000
1,7722221E-001	1,311681995939584E-002	2,000000000000000E+000
1,8125311E-001	1,273106467900414E-002	2,000000000000000E+000
1,8522035E-001	1,336605299414561E-002	2,000000000000000E+000
1,8924551E-001	1,311363626142942E-002	2,000000000000000E+000
1,9325413E-001	1,352859242615526E-002	2,000000000000000E+000
1,9722837E-001	1,345764717880232E-002	2,000000000000000E+000
2,0124148E-001	1,393030647680762E-002	2,000000000000000E+000
2,0523034E-001	1,372784776892033E-002	2,000000000000000E+000
2,0923260E-001	1,436321783682312E-002	2,000000000000000E+000
2,1324569E-001	1,429713138325801E-002	2,000000000000000E+000
2,1720782E-001	1,474131123880701E-002	2,000000000000000E+000
2,2126800E-001	1,452552416800852E-002	2,000000000000000E+000
2,2525181E-001	1,471788238498754E-002	2,000000000000000E+000
2,2926170E-001	1,461830797294775E-002	2,000000000000000E+000
2,3322830E-001	1,535106532040424E-002	2,000000000000000E+000
2,3727575E-001	1,520060037679888E-002	2,000000000000000E+000
2,4123344E-001	1,564700862885124E-002	2,000000000000000E+000
2,4527198E-001	1,557672035463233E-002	2,000000000000000E+000
2,4930350E-001	1,615461904342133E-002	2,000000000000000E+000
2,5324151E-001	1,610788868504949E-002	2,000000000000000E+000
2,5722402E-001	1,625699561518562E-002	2,000000000000000E+000
2,6126063E-001	1,620756870543116E-002	2,000000000000000E+000
2,6523489E-001	1,681454298183480E-002	2,000000000000000E+000
2,6921296E-001	1,691855290070336E-002	2,000000000000000E+000
2,7325407E-001	1,723363758246704E-002	2,000000000000000E+000
2,7717674E-001	1,746924726527743E-002	2,000000000000000E+000
2,8126618E-001	1,775086448966853E-002	2,000000000000000E+000
2,8528503E-001	1,767847538552209E-002	2,000000000000000E+000
2,8919369E-001	1,792900297962968E-002	2,000000000000000E+000
2,9321760E-001	1,814746443439319E-002	2,000000000000000E+000
2,9726121E-001	1,887563745052218E-002	2,000000000000000E+000
3,0122465E-001	1,888172832756635E-002	2,000000000000000E+000
3,0519888E-001	1,975206978362015E-002	2,000000000000000E+000
3,0920053E-001	1,955865010192304E-002	2,000000000000000E+000
3,1320530E-001	2,019206806289725E-002	2,000000000000000E+000
3,1724700E-001	2,019140892031525E-002	2,000000000000000E+000
3,2119581E-001	2,056506678248601E-002	2,000000000000000E+000
3,2523817E-001	2,077185655119435E-002	2,000000000000000E+000
3,2922384E-001	2,133112433099690E-002	2,000000000000000E+000
3,3319747E-001	2,139426033730461E-002	2,000000000000000E+000
3,3722329E-001	2,209794255080244E-002	2,000000000000000E+000
3,4124973E-001	2,248688135126337E-002	2,000000000000000E+000
3,4518898E-001	2,300410834795918E-002	2,000000000000000E+000
3,4921604E-001	2,304332692947356E-002	2,000000000000000E+000
3,5322088E-001	2,325030641053072E-002	2,000000000000000E+000
3,5722247E-001	2,393864515227806E-002	2,000000000000000E+000
3,6123297E-001	2,445152094781716E-002	2,000000000000000E+000
3,6377463E-001	2,376651577651501E-002	2,000000000000000E+000
3,6003515E-001	4,679584670554959E-004	2,000000000000000E+000
3,5605133E-001	-3,610851945268217E-003	2,000000000000000E+000
3,5208789E-001	-5,317663960158842E-003	2,000000000000000E+000
3,4806973E-001	-6,297001790941670E-003	2,000000000000000E+000
3,4407640E-001	-7,352421055171960E-003	2,000000000000000E+000
3,4008113E-001	-7,717081235568864E-003	2,000000000000000E+000
3,3605918E-001	-8,573309515183279E-003	2,000000000000000E+000
3,3206198E-001	-8,723265505553435E-003	2,000000000000000E+000
3,2808837E-001	-9,735943467361091E-003	2,000000000000000E+000
3,2407025E-001	-9,736580474661111E-003	2,000000000000000E+000
3,2004505E-001	-1,031779072642774E-002	2,000000000000000E+000
3,1606379E-001	-1,047513230114414E-002	2,000000000000000E+000
3,1205326E-001	-1,073270452240344E-002	2,000000000000000E+000
3,0803829E-001	-1,072430136409819E-002	2,000000000000000E+000
3,0409968E-001	-1,113668980591076E-002	2,000000000000000E+000
3,0007002E-001	-1,139765844454810E-002	2,000000000000000E+000
2,9617155E-001	-1,184947845237433E-002	2,000000000000000E+000
2,9212347E-001	-1,183969396006435E-002	2,000000000000000E+000
2,8811228E-001	-1,207591824810761E-002	2,000000000000000E+000
2,8410557E-001	-1,205350717379279E-002	2,000000000000000E+000
2,8010777E-001	-1,254136211913038E-002	2,000000000000000E+000
2,7609152E-001	-1,209921940026105E-002	2,000000000000000E+000
2,7213064E-001	-1,270417763262228E-002	2,000000000000000E+000
2,6809528E-001	-1,259403531706382E-002	2,000000000000000E+000
2,6406631E-001	-1,307598990570114E-002	2,000000000000000E+000
2,6014870E-001	-1,292231989403567E-002	2,000000000000000E+000
2,5613689E-001	-1,318572982418115E-002	2,000000000000000E+000
2,5212064E-001	-1,316584424639583E-002	2,000000000000000E+000
2,4816740E-001	-1,353381533068998E-002	2,000000000000000E+000
2,4411738E-001	-1,351155288903100E-002	2,000000000000000E+000
2,4006611E-001	-1,390424699105403E-002	2,000000000000000E+000
2,3615237E-001	-1,382907847413051E-002	2,000000000000000E+000
2,3209216E-001	-1,400250557295901E-002	2,000000000000000E+000
2,2811027E-001	-1,389673505000250E-002	2,000000000000000E+000
2,2410294E-001	-1,408177039253737E-002	2,000000000000000E+000
2,2014521E-001	-1,409121415138843E-002	2,000000000000000E+000
2,1607488E-001	-1,450742366626701E-002	2,000000000000000E+000
2,1215282E-001	-1,415912572507899E-002	2,000000000000000E+000
2,0811491E-001	-1,473435127615329E-002	2,000000000000000E+000
2,0409484E-001	-1,458424704384619E-002	2,000000000000000E+000
2,0010404E-001	-1,498895396895629E-002	2,000000000000000E+000
1,9610432E-001	-1,480351407444686E-002	2,000000000000000E+000
1,9208871E-001	-1,505132496228420E-002	2,000000000000000E+000
1,8814246E-001	-1,501741205417301E-002	2,000000000000000E+000
1,8408357E-001	-1,518224459869083E-002	2,000000000000000E+000
1,8007559E-001	-1,523939608135451E-002	2,000000000000000E+000
1,7608987E-001	-1,582761110330456E-002	2,000000000000000E+000
1,7209017E-001	-1,539028484888455E-002	2,000000000000000E+000
1,6809873E-001	-1,584828135140320E-002	2,000000000000000E+000
1,6411367E-001	-1,560392900294875E-002	2,000000000000000E+000
1,6007639E-001	-1,607340441781469E-002	2,000000000000000E+000
1,5610532E-001	-1,594711231773543E-002	2,000000000000000E+000
1,5213808E-001	-1,622866654361130E-002	2,000000000000000E+000
1,4812884E-001	-1,610714788366752E-002	2,000000000000000E+000
1,4410174E-001	-1,645202887254216E-002	2,000000000000000E+000
1,4015168E-001	-1,645750424771303E-002	2,000000000000000E+000
1,3605268E-001	-1,668443331473098E-002	2,000000000000000E+000
1,3209689E-001	-1,666405988835319E-002	2,000000000000000E+000
1,2808445E-001	-1,706239928886741E-002	2,000000000000000E+000
1,2409747E-001	-1,677439377696524E-002	2,000000000000000E+000
1,2006721E-001	-1,725842770659552E-002	2,000000000000000E+000
1,1611588E-001	-1,696004398424217E-002	2,000000000000000E+000
1,1213144E-001	-1,737145689839961E-002	2,000000000000000E+000
1,0813237E-001	-1,723676045864220E-002	2,000000000000000E+000
1,0412948E-001	-1,768684020244108E-002	2,000000000000000E+000
1,0014123E-001	-1,747693110470810E-002	2,000000000000000E+000
9,6130058E-002	-1,781665562084528E-002	2,000000000000000E+000
9,2183821E-002	-1,794161089492254E-002	2,000000000000000E+000
8,8117912E-002	-1,831123623354257E-002	2,000000000000000E+000
8,4100381E-002	-1,785818683347314E-002	2,000000000000000E+000
8,0156043E-002	-1,833547269003850E-002	2,000000000000000E+000
7,6151237E-002	-1,818895544856786E-002	2,000000000000000E+000
7,2085984E-002	-1,875590553742465E-002	2,000000000000000E+000
6,8111733E-002	-1,868321938418374E-002	2,000000000000000E+000
6,4178944E-002	-1,910610891018918E-002	2,000000000000000E+000
6,3975170E-002	5,330607996658410E-003	3,000000000000000E+000
6,8239659E-002	5,884187861465773E-003	3,000000000000000E+000
7,2301745E-002	5,187019219344311E-003	3,000000000000000E+000
7,6220624E-002	6,042865789762181E-003	3,000000000000000E+000
8,0290981E-002	6,852978493528422E-003	3,000000000000000E+000
8,4316157E-002	6,725263499235246E-003	3,000000000000000E+000
8,8242657E-002	7,501845304674751E-003	3,000000000000000E+000
9,2269108E-002	8,038319708975929E-003	3,000000000000000E+000
9,6300006E-002	8,353659144510556E-003	3,000000000000000E+000
1,0021824E-001	8,669232110999785E-003	3,000000000000000E+000
1,0422558E-001	9,038921741497091E-003	3,000000000000000E+000
1,0824949E-001	9,349062144974635E-003	3,000000000000000E+000
1,1222947E-001	9,579280142982816E-003	3,000000000000000E+000
1,1621007E-001	9,715652821008308E-003	3,000000000000000E+000
1,2028808E-001	1,013457770277454E-002	3,000000000000000E+000
1,2418721E-001	1,028555226694153E-002	3,000000000000000E+000
1,2822448E-001	1,058268356961589E-002	3,000000000000000E+000
1,3222609E-001	1,066997064020445E-002	3,000000000000000E+000
1,3618572E-001	1,100322221973331E-002	3,000000000000000E+000
1,4023378E-001	1,131446596021610E-002	3,000000000000000E+000
1,4428760E-001	1,139893009531077E-002	3,000000000000000E+000
1,4821221E-001	1,124001804782895E-002	3,000000000000000E+000
1,5219793E-001	1,171626398960748E-002	3,000000000000000E+000
1,5624855E-001	1,193014147380989E-002	3,000000000000000E+000
1,6021197E-001	1,208069128830783E-002	3,000000000000000E+000
1,6424733E-001	1,225004405447788E-002	3,000000000000000E+000
1,6830941E-001	1,245604697978706E-002	3,000000000000000E+000
1,7219707E-001	1,249180659930670E-002	3,000000000000000E+000
1,7623053E-001	1,290752673800549E-002	3,000000000000000E+000
1,8025443E-001	1,310064929869746E-002	3,000000000000000E+000
1,8420386E-001	1,319776056698174E-002	3,000000000000000E+000
1,8821119E-001	1,311495273342494E-002	3,000000000000000E+000
1,9223702E-001	1,329947893561137E-002	3,000000000000000E+000
1,9619152E-001	1,352978156537574E-002	3,000000000000000E+000
2,0024534E-001	1,379452822366149E-002	3,000000000000000E+000
2,0427878E-001	1,393397853013692E-002	3,000000000000000E+000
2,0821548E-001	1,411988441371553E-002	3,000000000000000E+000
2,1223556E-001	1,407992330241548E-002	3,000000000000000E+000
2,1624546E-001	1,429891366254499E-002	3,000000000000000E+000
2,2019486E-001	1,449827519791141E-002	3,000000000000000E+000
2,2422130E-001	1,475408632480446E-002	3,000000000000000E+000
2,2827770E-001	1,492965767417141E-002	3,000000000000000E+000
2,3223922E-001	1,510909062672006E-002	3,000000000000000E+000
2,3624274E-001	1,522460277010393E-002	3,000000000000000E+000
2,4025837E-001	1,535685901969071E-002	3,000000000000000E+000
2,4418171E-001	1,538398050906839E-002	3,000000000000000E+000
2,4827814E-001	1,585521722833314E-002	3,000000000000000E+000
2,5230524E-001	1,600882470908499E-002	3,000000000000000E+000
2,5628135E-001	1,612775204339416E-002	3,000000000000000E+000
2,6023206E-001	1,653156646752910E-002	3,000000000000000E+000
2,6421970E-001	1,667604753383783E-002	3,000000000000000E+000
2,6819268E-001	1,690458918783408E-002	3,000000000000000E+000
2,7222550E-001	1,704512139804135E-002	3,000000000000000E+000
2,7623728E-001	1,697708286859174E-002	3,000000000000000E+000
2,8022683E-001	1,760080301428393E-002	3,000000000000000E+000
2,8427300E-001	1,768227430681391E-002	3,000000000000000E+000
2,8827527E-001	1,825904976576564E-002	3,000000000000000E+000
2,9220682E-001	1,835633116764562E-002	3,000000000000000E+000
2,9626000E-001	1,859183410718593E-002	3,000000000000000E+000
3,0028138E-001	1,879883369195642E-002	3,000000000000000E+000
3,0419260E-001	1,911640294880873E-002	3,000000000000000E+000
3,0823368E-001	1,908976816327299E-002	3,000000000000000E+000
3,1217867E-001	1,975928468309573E-002	3,000000000000000E+000
3,1621400E-001	2,015862072294110E-002	3,000000000000000E+000
3,2023469E-001	2,052871359192068E-002	3,000000000000000E+000
3,2420579E-001	2,082272565870269E-002	3,000000000000000E+000
3,2821760E-001	2,142721868367514E-002	3,000000000000000E+000
3,3220586E-001	2,147899923996496E-002	3,000000000000000E+000
3,3623037E-001	2,195040724958139E-002	3,000000000000000E+000
3,4020332E-001	2,204917516088847E-002	3,000000000000000E+000
3,4425524E-001	2,258422710729069E-002	3,000000000000000E+000
3,4821102E-001	2,314623230704455E-002	3,000000000000000E+000
3,5225528E-001	2,359380648995280E-002	3,000000000000000E+000
3,5623592E-001	2,379756203542152E-002	3,000000000000000E+000
3,6019361E-001	2,430135282847912E-002	3,000000000000000E+000
3,6352637E-001	2,451395802199841E-002	3,000000000000000E+000
3,6116424E-001	-2,859524592364923E-003	3,000000000000000E+000
3,5705444E-001	-4,031241438618344E-003	3,000000000000000E+000
3,5303691E-001	-4,562855553649575E-003	3,000000000000000E+000
3,4910211E-001	-6,399844311090417E-003	3,000000000000000E+000
3,4512153E-001	-7,008749581230697E-003	3,000000000000000E+000
3,4101680E-001	-8,294259291142220E-003	3,000000000000000E+000
3,3711001E-001	-8,379042918265134E-003	3,000000000000000E+000
3,3306065E-001	-9,485394445982814E-003	3,000000000000000E+000
3,2904631E-001	-8,994866045638150E-003	3,000000000000000E+000
3,2511786E-001	-1,002178436744239E-002	3,000000000000000E+000
3,2104689E-001	-9,723273347420514E-003	3,000000000000000E+000
3,1701919E-001	-1,070732380831030E-002	3,000000000000000E+000
3,1310603E-001	-1,062691297617372E-002	3,000000000000000E+000
3,0904523E-001	-1,142596865392986E-002	3,000000000000000E+000
3,0511209E-001	-1,139119678048575E-002	3,000000000000000E+000
3,0110499E-001	-1,161172665185106E-002	3,000000000000000E+000
2,9708871E-001	-1,138089268800593E-002	3,000000000000000E+000
2,9309282E-001	-1,213285744767445E-002	3,000000000000000E+000
2,8911796E-001	-1,164848292246462E-002	3,000000000000000E+000
2,8510675E-001	-1,256143720092953E-002	3,000000000000000E+000
2,8106695E-001	-1,192628075635488E-002	3,000000000000000E+000
2,7705389E-001	-1,280230990814746E-002	3,000000000000000E+000
2,7303889E-001	-1,236833793142675E-002	3,000000000000000E+000
2,6913214E-001	-1,299876256149823E-002	3,000000000000000E+000
2,6513308E-001	-1,271298531549595E-002	3,000000000000000E+000
2,6106650E-001	-1,318288627711200E-002	3,000000000000000E+000
2,5714764E-001	-1,275967406836567E-002	3,000000000000000E+000
2,5311035E-001	-1,349289836362003E-002	3,000000000000000E+000
2,4906929E-001	-1,340132459226878E-002	3,000000000000000E+000
2,4512051E-001	-1,378663404490596E-002	3,000000000000000E+000
2,4111189E-001	-1,337460677920410E-002	3,000000000000000E+000
2,3711599E-001	-1,385630663098708E-002	3,000000000000000E+000
2,3314491E-001	-1,370817574255245E-002	3,000000000000000E+000
2,2910514E-001	-1,432200479224166E-002	3,000000000000000E+000
2,2508822E-001	-1,383164655417202E-002	3,000000000000000E+000
2,2108151E-001	-1,448460908371396E-002	3,000000000000000E+000
2,1710216E-001	-1,416487628957830E-002	3,000000000000000E+000
2,1305092E-001	-1,467849465686108E-002	3,000000000000000E+000
2,0917596E-001	-1,448753802554462E-002	3,000000000000000E+000
2,0507185E-001	-1,500597301977298E-002	3,000000000000000E+000
2,0108745E-001	-1,451769449158744E-002	3,000000000000000E+000
1,9712591E-001	-1,492579639064685E-002	3,000000000000000E+000
1,9307145E-001	-1,481921824658156E-002	3,000000000000000E+000
1,8905076E-001	-1,538601974752962E-002	3,000000000000000E+000
1,8510064E-001	-1,515474119126642E-002	3,000000000000000E+000
1,8108059E-001	-1,569259518970888E-002	3,000000000000000E+000
1,7706627E-001	-1,511382446891119E-002	3,000000000000000E+000
1,7314227E-001	-1,561063386070599E-002	3,000000000000000E+000
1,6909738E-001	-1,543330275720411E-002	3,000000000000000E+000
1,6506903E-001	-1,613951150199383E-002	3,000000000000000E+000
1,6109352E-001	-1,560191170986702E-002	3,000000000000000E+000
1,5707025E-001	-1,632974673533070E-002	3,000000000000000E+000
1,5309854E-001	-1,607361663518531E-002	3,000000000000000E+000
1,4913321E-001	-1,641941049274460E-002	3,000000000000000E+000
1,4508258E-001	-1,622607754907216E-002	3,000000000000000E+000
1,4103897E-001	-1,666036675887889E-002	3,000000000000000E+000
1,3714363E-001	-1,632851565749056E-002	3,000000000000000E+000
1,3312991E-001	-1,673549387560339E-002	3,000000000000000E+000
1,2906975E-001	-1,661091797480663E-002	3,000000000000000E+000
1,2509358E-001	-1,723818256893225E-002	3,000000000000000E+000
1,2108370E-001	-1,687757666125736E-002	3,000000000000000E+000
1,1704325E-001	-1,724295641797652E-002	3,000000000000000E+000
1,1312246E-001	-1,716978312651918E-002	3,000000000000000E+000
1,0911002E-001	-1,750672635547143E-002	3,000000000000000E+000
1,0508167E-001	-1,737332514518734E-002	3,000000000000000E+000
1,0115515E-001	-1,776385543247061E-002	3,000000000000000E+000
9,7141445E-002	-1,745044595336354E-002	3,000000000000000E+000
9,3115009E-002	-1,813345902094926E-002	3,000000000000000E+000
8,9150928E-002	-1,767938936706435E-002	3,000000000000000E+000
8,5155040E-002	-1,843795499153206E-002	3,000000000000000E+000
8,1133701E-002	-1,801911340104800E-002	3,000000000000000E+000
7,7153087E-002	-1,882674317506222E-002	3,000000000000000E+000
7,3123462E-002	-1,836917205146166E-002	3,000000000000000E+000
6,9065832E-002	-1,869221720286679E-002	3,000000000000000E+000
6,5108761E-002	-1,830669488372217E-002	3,000000000000000E+000
6,3643582E-002	-1,756572350859642E-002	4,000000000000000E+000
6,7236550E-002	1,100144713864638E-003	4,000000000000000E+000
7,1243897E-002	4,656868907356213E-003	4,000000000000000E+000
7,5248070E-002	6,124613138733054E-003	4,000000000000000E+000
7,9276413E-002	6,211666609427374E-003	4,000000000000000E+000
8,3264038E-002	7,505792900277197E-003	4,000000000000000E+000
8,7252282E-002	7,432766991890577E-003	4,000000000000000E+000
9,1217622E-002	8,099864111015140E-003	4,000000000000000E+000
9,5277160E-002	8,086514471142434E-003	4,000000000000000E+000
9,9250138E-002	8,751765824429950E-003	4,000000000000000E+000
1,0324985E-001	8,492833831102581E-003	4,000000000000000E+000
1,0727374E-001	9,232977412042011E-003	4,000000000000000E+000
1,1125626E-001	9,416187426359107E-003	4,000000000000000E+000
1,1527125E-001	1,005673589570507E-002	4,000000000000000E+000
1,1926333E-001	9,820468992256776E-003	4,000000000000000E+000
1,2323057E-001	1,031662195406774E-002	4,000000000000000E+000
1,2723665E-001	1,027059067661563E-002	4,000000000000000E+000
1,3123889E-001	1,104670607710437E-002	4,000000000000000E+000
1,3525897E-001	1,045993468821205E-002	4,000000000000000E+000
1,3923895E-001	1,129591808215386E-002	4,000000000000000E+000
1,4321958E-001	1,115839778734273E-002	4,000000000000000E+000
1,4725620E-001	1,159404644786266E-002	4,000000000000000E+000
1,5123618E-001	1,155404206644260E-002	4,000000000000000E+000
1,5521614E-001	1,183532075592668E-002	4,000000000000000E+000
1,5920568E-001	1,184960323868534E-002	4,000000000000000E+000
1,6319965E-001	1,234284778693107E-002	4,000000000000000E+000
1,6727257E-001	1,199287420568002E-002	4,000000000000000E+000
1,7127101E-001	1,251426027338309E-002	4,000000000000000E+000
1,7519115E-001	1,258200065822165E-002	4,000000000000000E+000
1,7923285E-001	1,329765339736089E-002	4,000000000000000E+000
1,8324532E-001	1,279057210461669E-002	4,000000000000000E+000
1,8718010E-001	1,329591387026692E-002	4,000000000000000E+000
1,9124791E-001	1,328572682286902E-002	4,000000000000000E+000
1,9525337E-001	1,377846310921697E-002	4,000000000000000E+000
1,9922251E-001	1,338475010925323E-002	4,000000000000000E+000
2,0325786E-001	1,385420402790868E-002	4,000000000000000E+000
2,0725821E-001	1,383875482533767E-002	4,000000000000000E+000
2,1121463E-001	1,439560239171747E-002	4,000000000000000E+000
2,1518824E-001	1,423560810714367E-002	4,000000000000000E+000
2,1924905E-001	1,460485257593972E-002	4,000000000000000E+000
2,2319658E-001	1,431971197198437E-002	4,000000000000000E+000
2,2721411E-001	1,484113967453601E-002	4,000000000000000E+000
2,3125009E-001	1,495902851844824E-002	4,000000000000000E+000
2,3525171E-001	1,546971827168220E-002	4,000000000000000E+000
2,3922214E-001	1,534928330317298E-002	4,000000000000000E+000
2,4329825E-001	1,582071014648445E-002	4,000000000000000E+000
2,4722092E-001	1,555305834881442E-002	4,000000000000000E+000
2,5128365E-001	1,602904894486223E-002	4,000000000000000E+000
2,5524452E-001	1,589619749429404E-002	4,000000000000000E+000
2,5919330E-001	1,646312676627228E-002	4,000000000000000E+000
2,6321658E-001	1,638454141587620E-002	4,000000000000000E+000
2,6726082E-001	1,688394127049835E-002	4,000000000000000E+000
2,7117717E-001	1,676908523744114E-002	4,000000000000000E+000
2,7528507E-001	1,764154817695579E-002	4,000000000000000E+000
2,7924532E-001	1,721837885549277E-002	4,000000000000000E+000
2,8322214E-001	1,802594578900124E-002	4,000000000000000E+000
2,8723714E-001	1,772906961668921E-002	4,000000000000000E+000
2,9129982E-001	1,832473097905075E-002	4,000000000000000E+000
2,9522443E-001	1,829190201715394E-002	4,000000000000000E+000
2,9930627E-001	1,909108506066945E-002	4,000000000000000E+000
3,0323276E-001	1,889331475928580E-002	4,000000000000000E+000
3,0720958E-001	1,960353503624601E-002	4,000000000000000E+000
3,1120098E-001	1,967004453399573E-002	4,000000000000000E+000
3,1519815E-001	2,004001083987532E-002	4,000000000000000E+000
3,1920362E-001	2,016106256123747E-002	4,000000000000000E+000
3,2323578E-001	2,106992172484756E-002	4,000000000000000E+000
3,2720175E-001	2,062956153919615E-002	4,000000000000000E+000
3,3119828E-001	2,155860316779582E-002	4,000000000000000E+000
3,3527243E-001	2,156507778442275E-002	4,000000000000000E+000
3,3921933E-001	2,231370952067668E-002	4,000000000000000E+000
3,4316877E-001	2,231088597327463E-002	4,000000000000000E+000
3,4723404E-001	2,308110081988468E-002	4,000000000000000E+000
3,5118532E-001	2,315380918953458E-002	4,000000000000000E+000
3,5518190E-001	2,385121048525132E-002	4,000000000000000E+000
3,5925034E-001	2,402438330755097E-002	4,000000000000000E+000
3,6309350E-001	2,473538360269834E-002	4,000000000000000E+000
3,6191154E-001	3,443047481433814E-003	4,000000000000000E+000
3,5808870E-001	-1,850623907360696E-003	4,000000000000000E+000
3,5409221E-001	-4,757547783932142E-003	4,000000000000000E+000
3,5008678E-001	-5,891489211959797E-003	4,000000000000000E+000
3,4610042E-001	-6,962825011396494E-003	4,000000000000000E+000
3,4205937E-001	-7,482194238521797E-003	4,000000000000000E+000
3,3805200E-001	-8,314272120333061E-003	4,000000000000000E+000
3,3410832E-001	-8,636572608702417E-003	4,000000000000000E+000
3,3005893E-001	-9,564107387571602E-003	4,000000000000000E+000
3,2602486E-001	-9,715485211199804E-003	4,000000000000000E+000
3,2207227E-001	-1,040386859434268E-002	4,000000000000000E+000
3,1807828E-001	-1,022942229077062E-002	4,000000000000000E+000
3,1406522E-001	-1,053521182281358E-002	4,000000000000000E+000
3,1010175E-001	-1,061042346445901E-002	4,000000000000000E+000
3,0612180E-001	-1,128549930799636E-002	4,000000000000000E+000
3,0212846E-001	-1,100897568673334E-002	4,000000000000000E+000
2,9807910E-001	-1,214312920067939E-002	4,000000000000000E+000
2,9409593E-001	-1,163592005383786E-002	4,000000000000000E+000
2,9008541E-001	-1,237086307749755E-002	4,000000000000000E+000
2,8612900E-001	-1,205070584498266E-002	4,000000000000000E+000
2,8207836E-001	-1,274689885176483E-002	4,000000000000000E+000
2,7812067E-001	-1,215463123080553E-002	4,000000000000000E+000
2,7415022E-001	-1,288244397304267E-002	4,000000000000000E+000
2,7010596E-001	-1,260263053336530E-002	4,000000000000000E+000
2,6612917E-001	-1,322263472017463E-002	4,000000000000000E+000
2,6209319E-001	-1,303594392156814E-002	4,000000000000000E+000
2,5806162E-001	-1,351796234860858E-002	4,000000000000000E+000
2,5412112E-001	-1,302790005380906E-002	4,000000000000000E+000
2,5008577E-001	-1,333867709484668E-002	4,000000000000000E+000
2,4604660E-001	-1,329462079908506E-002	4,000000000000000E+000
2,4214366E-001	-1,392116173738034E-002	4,000000000000000E+000
2,3809429E-001	-1,349075496667257E-002	4,000000000000000E+000
2,3409967E-001	-1,413595103197923E-002	4,000000000000000E+000
2,3012543E-001	-1,369225855766371E-002	4,000000000000000E+000
2,2610597E-001	-1,422911550677475E-002	4,000000000000000E+000
2,2212601E-001	-1,408323522870583E-002	4,000000000000000E+000
2,1811545E-001	-1,455922619364475E-002	4,000000000000000E+000
2,1406101E-001	-1,418686245342540E-002	4,000000000000000E+000
2,1008614E-001	-1,461414937936448E-002	4,000000000000000E+000
2,0611249E-001	-1,417665446412379E-002	4,000000000000000E+000
2,0207463E-001	-1,504196574011682E-002	4,000000000000000E+000
1,9808701E-001	-1,485811917967414E-002	4,000000000000000E+000
1,9412547E-001	-1,522173868385535E-002	4,000000000000000E+000
1,9009587E-001	-1,503884637107447E-002	4,000000000000000E+000
1,8606369E-001	-1,514003376250905E-002	4,000000000000000E+000
1,8208371E-001	-1,500635610015395E-002	4,000000000000000E+000
1,7808019E-001	-1,569915186228173E-002	4,000000000000000E+000
1,7408685E-001	-1,527653408011245E-002	4,000000000000000E+000
1,7011705E-001	-1,586347499990859E-002	4,000000000000000E+000
1,6608551E-001	-1,552005877225991E-002	4,000000000000000E+000
1,6205779E-001	-1,625801658750187E-002	4,000000000000000E+000
1,5814784E-001	-1,585048670955680E-002	4,000000000000000E+000
1,5411247E-001	-1,616661219632082E-002	4,000000000000000E+000
1,5008031E-001	-1,594265547998168E-002	4,000000000000000E+000
1,4613469E-001	-1,647656169601153E-002	4,000000000000000E+000
1,4212163E-001	-1,611126411577665E-002	4,000000000000000E+000
1,3806590E-001	-1,696201778177050E-002	4,000000000000000E+000
1,3415849E-001	-1,658195026902831E-002	4,000000000000000E+000
1,3013460E-001	-1,714811436916838E-002	4,000000000000000E+000
1,2604642E-001	-1,654958679585730E-002	4,000000000000000E+000
1,2216063E-001	-1,690391237364861E-002	4,000000000000000E+000
1,1811001E-001	-1,694775602469836E-002	4,000000000000000E+000
1,1407147E-001	-1,768183132226116E-002	4,000000000000000E+000
1,1010040E-001	-1,727926674672436E-002	4,000000000000000E+000
1,0611087E-001	-1,770422008958120E-002	4,000000000000000E+000
1,0206979E-001	-1,758287260029950E-002	4,000000000000000E+000
9,8133728E-002	-1,783087348073120E-002	4,000000000000000E+000
9,4148658E-002	-1,779715200136700E-002	4,000000000000000E+000
9,0091035E-002	-1,825905083496765E-002	4,000000000000000E+000
8,6080506E-002	-1,793530728367229E-002	4,000000000000000E+000
8,2128532E-002	-1,827498950321271E-002	4,000000000000000E+000
7,8170195E-002	-1,825117730974554E-002	4,000000000000000E+000
7,4106835E-002	-1,871331094710821E-002	4,000000000000000E+000
7,0101403E-002	-1,868275164658070E-002	4,000000000000000E+000
6,6109329E-002	-1,901931266802426E-002	4,000000000000000E+000
6,3529007E-002	-1,858247444033623E-002	4,000000000000000E+000
6,6232175E-002	7,153186948153245E-003	4,000000000000000E+000
7,0260517E-002	5,391260856958985E-003	4,000000000000000E+000
7,4257046E-002	5,319572457422823E-003	4,000000000000000E+000
7,8297496E-002	6,789778874675301E-003	4,000000000000000E+000
8,2263462E-002	6,801663414929269E-003	4,000000000000000E+000
8,6245358E-002	7,581725699249843E-003	4,000000000000000E+000
9,0283260E-002	7,568058210866507E-003	4,000000000000000E+000
9,4236493E-002	8,300730985987118E-003	4,000000000000000E+000
9,8239399E-002	8,516942029928046E-003	4,000000000000000E+000
1,0231610E-001	9,160163622436795E-003	4,000000000000000E+000
1,0623882E-001	9,049087093141395E-003	4,000000000000000E+000
1,1024424E-001	9,450121920175095E-003	4,000000000000000E+000
1,1426370E-001	9,390573196287763E-003	4,000000000000000E+000
1,1823476E-001	1,009841566434869E-002	4,000000000000000E+000
1,2225229E-001	9,796382186020025E-003	4,000000000000000E+000
1,2623100E-001	1,054416586205965E-002	4,000000000000000E+000
1,3021733E-001	1,019491274552516E-002	4,000000000000000E+000
1,3425206E-001	1,115871713336675E-002	4,000000000000000E+000
1,3825430E-001	1,071320017072140E-002	4,000000000000000E+000
1,4218782E-001	1,141225779344193E-002	4,000000000000000E+000
1,4628683E-001	1,120287985722826E-002	4,000000000000000E+000
1,5024389E-001	1,171153160091007E-002	4,000000000000000E+000
1,5425569E-001	1,147010898966980E-002	4,000000000000000E+000
1,5821086E-001	1,222079935408449E-002	4,000000000000000E+000
1,6225828E-001	1,208735504369546E-002	4,000000000000000E+000
1,6617016E-001	1,262987808913749E-002	4,000000000000000E+000
1,7022651E-001	1,229132155470628E-002	4,000000000000000E+000
1,7422560E-001	1,268592584407698E-002	4,000000000000000E+000
1,7819029E-001	1,260137633859511E-002	4,000000000000000E+000
1,8224539E-001	1,327952972217950E-002	4,000000000000000E+000
1,8629666E-001	1,281493505205919E-002	4,000000000000000E+000
1,9019514E-001	1,361076537905324E-002	4,000000000000000E+000
1,9423878E-001	1,336208387995916E-002	4,000000000000000E+000
1,9827224E-001	1,390757758041825E-002	4,000000000000000E+000
2,0218919E-001	1,368788608039420E-002	4,000000000000000E+000
2,0623219E-001	1,417601716008599E-002	4,000000000000000E+000
2,1026881E-001	1,376901877338244E-002	4,000000000000000E+000
2,1425961E-001	1,441425635918377E-002	4,000000000000000E+000
2,1826883E-001	1,422047728822992E-002	4,000000000000000E+000
2,2226728E-001	1,493553574485607E-002	4,000000000000000E+000
2,2623071E-001	1,474292407583566E-002	4,000000000000000E+000
2,3023301E-001	1,528514970329226E-002	4,000000000000000E+000
2,3427850E-001	1,486021878796839E-002	4,000000000000000E+000
2,3820631E-001	1,519217526304903E-002	4,000000000000000E+000
2,4223655E-001	1,519001111046239E-002	4,000000000000000E+000
2,4629103E-001	1,607756173774161E-002	4,000000000000000E+000
2,4933986E-001	1,622713729739189E-002	4,000000000000000E+000
2,4928258E-001	1,624496281147003E-002	4,000000000000000E+000