File: fig_si_ecsa/TiO2/50.txt
EC-Lab ASCII FILE
Ewe/V	<I>/mA	cycle number
6,3929997E-002	-6,427713483572006E-002	1,000000000000000E+000
6,8581663E-002	-7,541446292937806E-003	1,000000000000000E+000
7,4024722E-002	-7,026337167998359E-003	1,000000000000000E+000
7,9618424E-002	-2,315928178278324E-003	1,000000000000000E+000
8,5076332E-002	-1,284740295861613E-003	1,000000000000000E+000
8,9111686E-002	-7,938770600048886E-004	1,000000000000000E+000
9,3114153E-002	-4,322866527672886E-004	1,000000000000000E+000
9,7069941E-002	-1,102878406137441E-004	1,000000000000000E+000
1,0110742E-001	1,898380023826164E-004	1,000000000000000E+000
1,0508443E-001	4,966328681853659E-004	1,000000000000000E+000
1,0913887E-001	6,736059208884010E-004	1,000000000000000E+000
1,1308618E-001	8,961048348889254E-004	1,000000000000000E+000
1,1707485E-001	1,053725786025299E-003	1,000000000000000E+000
1,2108156E-001	1,268787259707298E-003	1,000000000000000E+000
1,2507765E-001	1,372385677010857E-003	1,000000000000000E+000
1,2907271E-001	1,595947452693107E-003	1,000000000000000E+000
1,3311866E-001	1,644097879155506E-003	1,000000000000000E+000
1,3707340E-001	1,821246798802651E-003	1,000000000000000E+000
1,4109284E-001	1,901189632816463E-003	1,000000000000000E+000
1,4511016E-001	2,042363337548328E-003	1,000000000000000E+000
1,4909673E-001	2,119545617258864E-003	1,000000000000000E+000
1,5310237E-001	2,263893196262270E-003	1,000000000000000E+000
1,5706557E-001	2,313635277055772E-003	1,000000000000000E+000
1,6108185E-001	2,406311224654525E-003	1,000000000000000E+000
1,6506204E-001	2,507923636585474E-003	1,000000000000000E+000
1,6906023E-001	2,640113630251219E-003	1,000000000000000E+000
1,7310303E-001	2,684341576847757E-003	1,000000000000000E+000
1,7715749E-001	2,808903076179890E-003	1,000000000000000E+000
1,8108037E-001	2,857216920448189E-003	1,000000000000000E+000
1,8507119E-001	2,987517081540620E-003	1,000000000000000E+000
1,8910229E-001	3,025245695729012E-003	1,000000000000000E+000
1,9310264E-001	3,126649427940730E-003	1,000000000000000E+000
1,9706583E-001	3,180609298093875E-003	1,000000000000000E+000
2,0110016E-001	3,300430158560637E-003	1,000000000000000E+000
2,0506868E-001	3,333574893784125E-003	1,000000000000000E+000
2,0912206E-001	3,456940738437372E-003	1,000000000000000E+000
2,1308634E-001	3,497826828606793E-003	1,000000000000000E+000
2,1706229E-001	3,614421153138730E-003	1,000000000000000E+000
2,2109339E-001	3,651696102881241E-003	1,000000000000000E+000
2,2509055E-001	3,712057045656053E-003	1,000000000000000E+000
2,2905590E-001	3,800707069078473E-003	1,000000000000000E+000
2,3309019E-001	3,922752730431953E-003	1,000000000000000E+000
2,3708735E-001	3,964797303019144E-003	1,000000000000000E+000
2,4107604E-001	4,078952622674289E-003	1,000000000000000E+000
2,4506259E-001	4,126417793385281E-003	1,000000000000000E+000
2,4911490E-001	4,255740908572800E-003	1,000000000000000E+000
2,5307488E-001	4,286037252313704E-003	1,000000000000000E+000
2,5707954E-001	4,391213494980353E-003	1,000000000000000E+000
2,6108199E-001	4,481791211017286E-003	1,000000000000000E+000
2,6508230E-001	4,610030005197720E-003	1,000000000000000E+000
2,6905721E-001	4,657050292331016E-003	1,000000000000000E+000
2,7308303E-001	4,806127039854738E-003	1,000000000000000E+000
2,7705792E-001	4,862423073063844E-003	1,000000000000000E+000
2,8109220E-001	5,015216938772951E-003	1,000000000000000E+000
2,8510317E-001	5,069554356547712E-003	1,000000000000000E+000
2,8906426E-001	5,154187496373211E-003	1,000000000000000E+000
2,9308155E-001	5,288722380403996E-003	1,000000000000000E+000
2,9710099E-001	5,444511400128256E-003	1,000000000000000E+000
3,0111092E-001	5,517387233541934E-003	1,000000000000000E+000
3,0506936E-001	5,672386320951399E-003	1,000000000000000E+000
3,0908510E-001	5,758367936828606E-003	1,000000000000000E+000
3,1307483E-001	5,919850488377676E-003	1,000000000000000E+000
3,1708470E-001	5,996011537515902E-003	1,000000000000000E+000
3,2104683E-001	6,166626603468721E-003	1,000000000000000E+000
3,2505146E-001	6,257667614894071E-003	1,000000000000000E+000
3,2902420E-001	6,449474436926214E-003	1,000000000000000E+000
3,3304048E-001	6,520428574327122E-003	1,000000000000000E+000
3,3707798E-001	6,706034620745233E-003	1,000000000000000E+000
3,4104857E-001	6,787904167140403E-003	1,000000000000000E+000
3,4508395E-001	6,969810481678020E-003	1,000000000000000E+000
3,4904289E-001	7,054058972345179E-003	1,000000000000000E+000
3,5302523E-001	7,177989687786795E-003	1,000000000000000E+000
3,5705742E-001	7,332570622869156E-003	1,000000000000000E+000
3,6105561E-001	7,504391041746024E-003	1,000000000000000E+000
3,6299375E-001	2,908032452170230E-003	1,000000000000000E+000
3,5896474E-001	1,807414361691278E-003	1,000000000000000E+000
3,5501215E-001	1,243180163025197E-003	1,000000000000000E+000
3,5099164E-001	7,811251498929415E-004	1,000000000000000E+000
3,4694988E-001	4,581306748150387E-004	1,000000000000000E+000
3,4297082E-001	1,544182872963683E-004	1,000000000000000E+000
3,3897683E-001	-6,391221519900606E-005	1,000000000000000E+000
3,3498812E-001	-3,202126301226176E-004	1,000000000000000E+000
3,3095387E-001	-5,038653231521396E-004	1,000000000000000E+000
3,2693762E-001	-6,512282080216730E-004	1,000000000000000E+000
3,2300407E-001	-8,425048541135308E-004	1,000000000000000E+000
3,1897193E-001	-1,032434099973521E-003	1,000000000000000E+000
3,1497899E-001	-1,131834036641521E-003	1,000000000000000E+000
3,1100729E-001	-1,298131536309989E-003	1,000000000000000E+000
3,0698147E-001	-1,385664710040955E-003	1,000000000000000E+000
3,0291429E-001	-1,525774051010054E-003	1,000000000000000E+000
2,9898927E-001	-1,629708462233892E-003	1,000000000000000E+000
2,9499739E-001	-1,749728309732745E-003	1,000000000000000E+000
2,9100871E-001	-1,831173619090506E-003	1,000000000000000E+000
2,8700733E-001	-1,951962844739474E-003	1,000000000000000E+000
2,8300592E-001	-2,011179624080081E-003	1,000000000000000E+000
2,7895567E-001	-2,120648728022279E-003	1,000000000000000E+000
2,7498296E-001	-2,182650179949824E-003	1,000000000000000E+000
2,7100596E-001	-2,292347071892832E-003	1,000000000000000E+000
2,6702043E-001	-2,347990572161500E-003	1,000000000000000E+000
2,6298615E-001	-2,415532788897189E-003	1,000000000000000E+000
2,5897947E-001	-2,497278485154499E-003	1,000000000000000E+000
2,5497380E-001	-2,597799606923620E-003	1,000000000000000E+000
2,5102541E-001	-2,635303750341537E-003	1,000000000000000E+000
2,4700281E-001	-2,733738936512971E-003	1,000000000000000E+000
2,4298234E-001	-2,773211114496609E-003	1,000000000000000E+000
2,3900531E-001	-2,864717295677912E-003	1,000000000000000E+000
2,3503998E-001	-2,913199189909680E-003	1,000000000000000E+000
2,3096006E-001	-2,995313812587271E-003	1,000000000000000E+000
2,2696395E-001	-3,030416036280143E-003	1,000000000000000E+000
2,2301134E-001	-3,104118778234494E-003	1,000000000000000E+000
2,1894418E-001	-3,134313228252306E-003	1,000000000000000E+000
2,1497460E-001	-3,225123504509808E-003	1,000000000000000E+000
2,1095197E-001	-3,259403466977846E-003	1,000000000000000E+000
2,0698237E-001	-3,336593738317273E-003	1,000000000000000E+000
2,0295338E-001	-3,376011198472244E-003	1,000000000000000E+000
1,9899018E-001	-3,408243134496537E-003	1,000000000000000E+000
1,9499089E-001	-3,482399405078870E-003	1,000000000000000E+000
1,9096614E-001	-3,562641982272102E-003	1,000000000000000E+000
1,8696158E-001	-3,588146408623684E-003	1,000000000000000E+000
1,8298455E-001	-3,649911724399615E-003	1,000000000000000E+000
1,7895131E-001	-3,691442466838959E-003	1,000000000000000E+000
1,7497113E-001	-3,765820743461113E-003	1,000000000000000E+000
1,7100792E-001	-3,804403447550897E-003	1,000000000000000E+000
1,6699696E-001	-3,861344219937266E-003	1,000000000000000E+000
1,6300510E-001	-3,889618293720157E-003	1,000000000000000E+000
1,5898037E-001	-3,964469106803231E-003	1,000000000000000E+000
1,5499911E-001	-3,994253967296864E-003	1,000000000000000E+000
1,5096693E-001	-4,064786679211663E-003	1,000000000000000E+000
1,4697930E-001	-4,092865528946270E-003	1,000000000000000E+000
1,4299275E-001	-4,164145347507042E-003	1,000000000000000E+000
1,3899772E-001	-4,195413672682141E-003	1,000000000000000E+000
1,3499102E-001	-4,232092490484424E-003	1,000000000000000E+000
1,3102037E-001	-4,279595370462609E-003	1,000000000000000E+000
1,2701046E-001	-4,360692443394015E-003	1,000000000000000E+000
1,2298255E-001	-4,389934329891612E-003	1,000000000000000E+000
1,1899813E-001	-4,461979820512663E-003	1,000000000000000E+000
1,1499459E-001	-4,489780110210007E-003	1,000000000000000E+000
1,1102182E-001	-4,555703272975123E-003	1,000000000000000E+000
1,0703845E-001	-4,581826571666156E-003	1,000000000000000E+000
1,0300204E-001	-4,633784314743596E-003	1,000000000000000E+000
9,8985784E-002	-4,687293472670703E-003	1,000000000000000E+000
9,5000282E-002	-4,756424735306700E-003	1,000000000000000E+000
9,1032825E-002	-4,771768035021093E-003	1,000000000000000E+000
8,7002777E-002	-4,844383053649731E-003	1,000000000000000E+000
8,2981214E-002	-4,873725681439560E-003	1,000000000000000E+000
7,9039209E-002	-4,938870223365170E-003	1,000000000000000E+000
7,5015530E-002	-4,970679500628539E-003	1,000000000000000E+000
7,0991844E-002	-5,003352784115123E-003	1,000000000000000E+000
6,6991501E-002	-5,067630683899750E-003	1,000000000000000E+000
6,3452631E-002	-5,130972790842257E-003	1,000000000000000E+000
6,7166537E-002	-6,814900365712754E-004	2,000000000000000E+000
7,1180671E-002	-3,362450611348331E-004	2,000000000000000E+000
7,5173587E-002	-3,146977815365263E-005	2,000000000000000E+000
7,9190910E-002	2,620091180713432E-004	2,000000000000000E+000
8,3190203E-002	4,355636040650600E-004	2,000000000000000E+000
8,7226607E-002	6,467360457867877E-004	2,000000000000000E+000
9,1198310E-002	7,923224703619020E-004	2,000000000000000E+000
9,5190175E-002	9,652039864502387E-004	2,000000000000000E+000
9,9203251E-002	1,074623423088878E-003	2,000000000000000E+000
1,0315267E-001	1,218907330439839E-003	2,000000000000000E+000
1,0720925E-001	1,337216260961014E-003	2,000000000000000E+000
1,1116504E-001	1,482178354611584E-003	2,000000000000000E+000
1,1521311E-001	1,563696966109602E-003	2,000000000000000E+000
1,1918800E-001	1,709072906831151E-003	2,000000000000000E+000
1,2316182E-001	1,784030263075286E-003	2,000000000000000E+000
1,2718976E-001	1,920360215485244E-003	2,000000000000000E+000
1,3120072E-001	1,975427246684883E-003	2,000000000000000E+000
1,3520953E-001	2,063845507412532E-003	2,000000000000000E+000
1,3919185E-001	2,159740376252266E-003	2,000000000000000E+000
1,4319645E-001	2,257655641288801E-003	2,000000000000000E+000
1,4716814E-001	2,322003720109937E-003	2,000000000000000E+000
1,5114196E-001	2,436157647227648E-003	2,000000000000000E+000
1,5517308E-001	2,473564145273284E-003	2,000000000000000E+000
1,5917981E-001	2,591732564016846E-003	2,000000000000000E+000
1,6316845E-001	2,626613672974704E-003	2,000000000000000E+000
1,6720594E-001	2,741773845627907E-003	2,000000000000000E+000
1,7120418E-001	2,785774444621206E-003	2,000000000000000E+000
1,7512387E-001	2,874246638182545E-003	2,000000000000000E+000
1,7919742E-001	2,936249752666396E-003	2,000000000000000E+000
1,8316808E-001	3,044014761649637E-003	2,000000000000000E+000
1,8717904E-001	3,073096199538369E-003	2,000000000000000E+000
1,9115390E-001	3,181496172045528E-003	2,000000000000000E+000
1,9518715E-001	3,214105669434912E-003	2,000000000000000E+000
1,9915569E-001	3,284603917563807E-003	2,000000000000000E+000
2,0316023E-001	3,353300743684584E-003	2,000000000000000E+000
2,0717756E-001	3,449185895482924E-003	2,000000000000000E+000
2,1121293E-001	3,498994168290269E-003	2,000000000000000E+000
2,1519947E-001	3,607280886272851E-003	2,000000000000000E+000
2,1915208E-001	3,644668814457769E-003	2,000000000000000E+000
2,2315244E-001	3,752149978026878E-003	2,000000000000000E+000
2,2721536E-001	3,788468077901702E-003	2,000000000000000E+000
2,3118176E-001	3,909477446035842E-003	2,000000000000000E+000
2,3518635E-001	3,952755273429739E-003	2,000000000000000E+000
2,3918989E-001	4,030773811892790E-003	2,000000000000000E+000
2,4320512E-001	4,111570139179510E-003	2,000000000000000E+000
2,4716085E-001	4,210024050229966E-003	2,000000000000000E+000
2,5118986E-001	4,251138626487877E-003	2,000000000000000E+000
2,5518492E-001	4,370592546264472E-003	2,000000000000000E+000
2,5917780E-001	4,421865855773741E-003	2,000000000000000E+000
2,6316434E-001	4,506698443745162E-003	2,000000000000000E+000
2,6717108E-001	4,605674196581193E-003	2,000000000000000E+000
2,7119902E-001	4,735923333403978E-003	2,000000000000000E+000
2,7516329E-001	4,787384903465856E-003	2,000000000000000E+000
2,7913821E-001	4,921038620927419E-003	2,000000000000000E+000
2,8318521E-001	5,000679682578071E-003	2,000000000000000E+000
2,8714415E-001	5,128644828396832E-003	2,000000000000000E+000
2,9119542E-001	5,206350688644714E-003	2,000000000000000E+000
2,9514486E-001	5,339263957769935E-003	2,000000000000000E+000
2,9917812E-001	5,421002580583770E-003	2,000000000000000E+000
3,0314875E-001	5,559933011277808E-003	2,000000000000000E+000
3,0717558E-001	5,644948137665404E-003	2,000000000000000E+000
3,1120038E-001	5,814159263132359E-003	2,000000000000000E+000
3,1514341E-001	5,885984301130539E-003	2,000000000000000E+000
3,1914058E-001	6,060251850916160E-003	2,000000000000000E+000
3,2315683E-001	6,148168803014843E-003	2,000000000000000E+000
3,2715291E-001	6,273064440594903E-003	2,000000000000000E+000
3,3114371E-001	6,421843094964689E-003	2,000000000000000E+000
3,3518973E-001	6,573732281039080E-003	2,000000000000000E+000
3,3911681E-001	6,667305153920701E-003	2,000000000000000E+000
3,4315434E-001	6,837351991837048E-003	2,000000000000000E+000
3,4714088E-001	6,935326293185259E-003	2,000000000000000E+000
3,5116667E-001	7,096716316785510E-003	2,000000000000000E+000
3,5514790E-001	7,192374848980582E-003	2,000000000000000E+000
3,5913983E-001	7,340767925294745E-003	2,000000000000000E+000
3,6311695E-001	7,470771469343176E-003	2,000000000000000E+000
3,6093897E-001	2,092666089285766E-003	2,000000000000000E+000
3,5694703E-001	1,439051502832932E-003	2,000000000000000E+000
3,5291386E-001	9,570281922606227E-004	2,000000000000000E+000
3,4897715E-001	5,667268908129920E-004	2,000000000000000E+000
3,4495026E-001	2,075664378745995E-004	2,000000000000000E+000
3,4095630E-001	-1,724653726221774E-005	2,000000000000000E+000
3,3700368E-001	-2,973723207509871E-004	2,000000000000000E+000
3,3295771E-001	-4,592829391438305E-004	2,000000000000000E+000
3,2893407E-001	-6,998064746363119E-004	2,000000000000000E+000
3,2495597E-001	-8,185716374605866E-004	2,000000000000000E+000
3,2093868E-001	-1,015387406166864E-003	2,000000000000000E+000
3,1692666E-001	-1,114849364512338E-003	2,000000000000000E+000
3,1294751E-001	-1,306673413233102E-003	2,000000000000000E+000
3,0898961E-001	-1,381856282932857E-003	2,000000000000000E+000
3,0497262E-001	-1,557767951732889E-003	2,000000000000000E+000
3,0100587E-001	-1,618713574114534E-003	2,000000000000000E+000
2,9702145E-001	-1,783776602476587E-003	2,000000000000000E+000
2,9296276E-001	-1,833644116737150E-003	2,000000000000000E+000
2,8899422E-001	-1,914457155685844E-003	2,000000000000000E+000
2,8499180E-001	-2,005341702695454E-003	2,000000000000000E+000
2,8095320E-001	-2,153182200547443E-003	2,000000000000000E+000
2,7694228E-001	-2,191952489940571E-003	2,000000000000000E+000
2,7298331E-001	-2,302007712690572E-003	2,000000000000000E+000
2,6897445E-001	-2,352922953125228E-003	2,000000000000000E+000
2,6499325E-001	-2,483165766534508E-003	2,000000000000000E+000
2,6097059E-001	-2,492790985343159E-003	2,000000000000000E+000
2,5696599E-001	-2,590187969973234E-003	2,000000000000000E+000
2,5299007E-001	-2,646308138031982E-003	2,000000000000000E+000
2,4899717E-001	-2,756787026858852E-003	2,000000000000000E+000
2,4498831E-001	-2,790595445629953E-003	2,000000000000000E+000
2,4099009E-001	-2,901490841799789E-003	2,000000000000000E+000
2,3697703E-001	-2,925609649739463E-003	2,000000000000000E+000
2,3299365E-001	-3,021362980184163E-003	2,000000000000000E+000
2,2897208E-001	-3,050328708316848E-003	2,000000000000000E+000
2,2499403E-001	-3,083665918085073E-003	2,000000000000000E+000
2,2095442E-001	-3,166120747765585E-003	2,000000000000000E+000
2,1700713E-001	-3,249517573244189E-003	2,000000000000000E+000
2,1299192E-001	-3,260428378982591E-003	2,000000000000000E+000
2,0901069E-001	-3,363764130780399E-003	2,000000000000000E+000
2,0498168E-001	-3,379977060426923E-003	2,000000000000000E+000
2,0098132E-001	-3,480558487960167E-003	2,000000000000000E+000
1,9698098E-001	-3,481099441867419E-003	2,000000000000000E+000
1,9298384E-001	-3,587447798862632E-003	2,000000000000000E+000
1,8897286E-001	-3,600883247094708E-003	2,000000000000000E+000
1,8498737E-001	-3,690632563019686E-003	2,000000000000000E+000
1,8097006E-001	-3,701299190247982E-003	2,000000000000000E+000
1,7696017E-001	-3,803172577843530E-003	2,000000000000000E+000
1,7297043E-001	-3,817380715190666E-003	2,000000000000000E+000
1,6900615E-001	-3,903394163595891E-003	2,000000000000000E+000
1,6496868E-001	-3,905530477519875E-003	2,000000000000000E+000
1,6097470E-001	-3,945623493362069E-003	2,000000000000000E+000
1,5695524E-001	-4,011294749943765E-003	2,000000000000000E+000
1,5299524E-001	-4,102379864586198E-003	2,000000000000000E+000
1,4900655E-001	-4,112921094929327E-003	2,000000000000000E+000
1,4496270E-001	-4,201467281139543E-003	2,000000000000000E+000
1,4095704E-001	-4,212293251233252E-003	2,000000000000000E+000
1,3696201E-001	-4,308522119875605E-003	2,000000000000000E+000
1,3299243E-001	-4,292151602486333E-003	2,000000000000000E+000
1,2898572E-001	-4,434130475096429E-003	2,000000000000000E+000
1,2498006E-001	-4,409015963675392E-003	2,000000000000000E+000
1,2098186E-001	-4,486653772295915E-003	2,000000000000000E+000
1,1696983E-001	-4,500112453469124E-003	2,000000000000000E+000
1,1298222E-001	-4,592660648793531E-003	2,000000000000000E+000
1,0896914E-001	-4,601998198874441E-003	2,000000000000000E+000
1,0497834E-001	-4,699004816454040E-003	2,000000000000000E+000
1,0098436E-001	-4,687132674411620E-003	2,000000000000000E+000
9,7011596E-002	-4,722554848639343E-003	2,000000000000000E+000
9,3010187E-002	-4,776418329533447E-003	2,000000000000000E+000
8,9017265E-002	-4,881286495623874E-003	2,000000000000000E+000
8,4979787E-002	-4,874746016462747E-003	2,000000000000000E+000
8,1034616E-002	-4,974661212246337E-003	2,000000000000000E+000
7,7007748E-002	-4,983618956531329E-003	2,000000000000000E+000
7,2989367E-002	-5,077589597931351E-003	2,000000000000000E+000
6,8983711E-002	-5,064320261428484E-003	2,000000000000000E+000
6,4998224E-002	-5,155000254388920E-003	2,000000000000000E+000
6,5173253E-002	-9,228164764433812E-004	3,000000000000000E+000
6,9194824E-002	-5,350476679824244E-004	3,000000000000000E+000
7,3178187E-002	-1,571551284769155E-004	3,000000000000000E+000
7,7150956E-002	6,239033954032660E-005	3,000000000000000E+000
8,1177823E-002	3,355596839406241E-004	3,000000000000000E+000
8,5195132E-002	4,903096000564121E-004	3,000000000000000E+000
8,9205034E-002	6,938208856708016E-004	3,000000000000000E+000
9,3215987E-002	8,276139321626279E-004	3,000000000000000E+000
9,7164355E-002	9,582016035286278E-004	3,000000000000000E+000
1,0122304E-001	1,111485414437797E-003	3,000000000000000E+000
1,0520005E-001	1,283858479837367E-003	3,000000000000000E+000
1,0919403E-001	1,362764156915043E-003	3,000000000000000E+000
1,1316998E-001	1,512864639254180E-003	3,000000000000000E+000
1,1722656E-001	1,581997451163868E-003	3,000000000000000E+000
1,2120462E-001	1,732744318764572E-003	3,000000000000000E+000
1,2519011E-001	1,795329330687104E-003	3,000000000000000E+000
1,2919575E-001	1,946865790867180E-003	3,000000000000000E+000
1,3318445E-001	1,984408420665010E-003	3,000000000000000E+000
1,3718903E-001	2,109549033573584E-003	3,000000000000000E+000
1,4118089E-001	2,167101807976406E-003	3,000000000000000E+000
1,4518653E-001	2,273988676582426E-003	3,000000000000000E+000
1,4914763E-001	2,331796892071407E-003	3,000000000000000E+000
1,5322544E-001	2,435055025772376E-003	3,000000000000000E+000
1,5717377E-001	2,479815904937125E-003	3,000000000000000E+000
1,6115080E-001	2,551682921370632E-003	3,000000000000000E+000
1,6515115E-001	2,633189146258215E-003	3,000000000000000E+000
1,6915466E-001	2,744417771989707E-003	3,000000000000000E+000
1,7318790E-001	2,782934157140631E-003	3,000000000000000E+000
1,7718400E-001	2,879292256693596E-003	3,000000000000000E+000
1,8118541E-001	2,927586853426568E-003	3,000000000000000E+000
1,8518469E-001	3,041124269657317E-003	3,000000000000000E+000
1,8920520E-001	3,090524853986511E-003	3,000000000000000E+000
1,9322039E-001	3,166245355613592E-003	3,000000000000000E+000
1,9714221E-001	3,212156721120770E-003	3,000000000000000E+000
2,0114365E-001	3,330355059410485E-003	3,000000000000000E+000
2,0517687E-001	3,358882879789840E-003	3,000000000000000E+000
2,0914219E-001	3,461903086847309E-003	3,000000000000000E+000
2,1315952E-001	3,497826824766698E-003	3,000000000000000E+000
2,1716730E-001	3,604506981800010E-003	3,000000000000000E+000
2,2117825E-001	3,645506315782171E-003	3,000000000000000E+000
2,2517647E-001	3,711076312457519E-003	3,000000000000000E+000
2,2919911E-001	3,800186183879208E-003	3,000000000000000E+000
2,3325674E-001	3,905950172742839E-003	3,000000000000000E+000
2,3718919E-001	3,947873472295929E-003	3,000000000000000E+000
2,4117044E-001	4,054816737657854E-003	3,000000000000000E+000
2,4516867E-001	4,099338316639983E-003	3,000000000000000E+000
2,4920824E-001	4,220749067624430E-003	3,000000000000000E+000
2,5317359E-001	4,262514078921725E-003	3,000000000000000E+000
2,5716650E-001	4,353532669887923E-003	3,000000000000000E+000
2,6116472E-001	4,437599719191596E-003	3,000000000000000E+000
2,6511523E-001	4,568458622897099E-003	3,000000000000000E+000
2,6918873E-001	4,615721414463939E-003	3,000000000000000E+000
2,7318382E-001	4,731341894108079E-003	3,000000000000000E+000
2,7715340E-001	4,808517746116445E-003	3,000000000000000E+000
2,8117070E-001	4,941378915747113E-003	3,000000000000000E+000
2,8520074E-001	5,005803160101005E-003	3,000000000000000E+000
2,8920645E-001	5,104798205138664E-003	3,000000000000000E+000
2,9318765E-001	5,219406352504563E-003	3,000000000000000E+000
2,9717100E-001	5,367123808860536E-003	3,000000000000000E+000
3,0114701E-001	5,444638476344892E-003	3,000000000000000E+000
3,0513948E-001	5,604651106318817E-003	3,000000000000000E+000
3,0910525E-001	5,683714724808761E-003	3,000000000000000E+000
3,1319365E-001	5,825571122032774E-003	3,000000000000000E+000
3,1713775E-001	5,921687868572507E-003	3,000000000000000E+000
3,2114235E-001	6,075190073816988E-003	3,000000000000000E+000
3,2513314E-001	6,169742878733422E-003	3,000000000000000E+000
3,2913348E-001	6,346870546015779E-003	3,000000000000000E+000
3,3313173E-001	6,436820645224856E-003	3,000000000000000E+000
3,3715433E-001	6,598932063045335E-003	3,000000000000000E+000
3,4116527E-001	6,689367223265824E-003	3,000000000000000E+000
3,4516779E-001	6,862683038990458E-003	3,000000000000000E+000
3,4916598E-001	6,961088279947764E-003	3,000000000000000E+000
3,5317796E-001	7,066288005767616E-003	3,000000000000000E+000
3,5714445E-001	7,212799369072959E-003	3,000000000000000E+000
3,6113200E-001	7,395347766254806E-003	3,000000000000000E+000
3,6298421E-001	2,783772452908631E-003	3,000000000000000E+000
3,5895094E-001	1,703115677325215E-003	3,000000000000000E+000
3,5495380E-001	1,143905643908105E-003	3,000000000000000E+000
3,5097468E-001	6,766212234449813E-004	3,000000000000000E+000
3,4693184E-001	3,576474677578923E-004	3,000000000000000E+000
3,4296972E-001	6,233993659954229E-005	3,000000000000000E+000
3,3894289E-001	-1,565317323108193E-004	3,000000000000000E+000
3,3492342E-001	-3,961665989764794E-004	3,000000000000000E+000
3,3100158E-001	-5,803755007541935E-004	3,000000000000000E+000
3,2695672E-001	-7,446205371605986E-004	3,000000000000000E+000
3,2296693E-001	-9,260103925043933E-004	3,000000000000000E+000
3,1896555E-001	-1,093177082111648E-003	3,000000000000000E+000
3,1498536E-001	-1,220424044731765E-003	3,000000000000000E+000
3,1094572E-001	-1,365628423930801E-003	3,000000000000000E+000
3,0696985E-001	-1,454321859253267E-003	3,000000000000000E+000
3,0295566E-001	-1,621070989535329E-003	3,000000000000000E+000
2,9897550E-001	-1,707982623075717E-003	3,000000000000000E+000
2,9497936E-001	-1,817920314351792E-003	3,000000000000000E+000
2,9103950E-001	-1,907902072869341E-003	3,000000000000000E+000
2,8699034E-001	-2,023915612880955E-003	3,000000000000000E+000
2,8297305E-001	-2,083194389949000E-003	3,000000000000000E+000
2,7896100E-001	-2,196010211870680E-003	3,000000000000000E+000
2,7497870E-001	-2,257831231771784E-003	3,000000000000000E+000
2,7098793E-001	-2,347643085562998E-003	3,000000000000000E+000
2,6696950E-001	-2,421040777335277E-003	3,000000000000000E+000
2,6299781E-001	-2,474819322338184E-003	3,000000000000000E+000
2,5894654E-001	-2,563907219559444E-003	3,000000000000000E+000
2,5498015E-001	-2,655480492143786E-003	3,000000000000000E+000
2,5099784E-001	-2,703263950226957E-003	3,000000000000000E+000
2,4697311E-001	-2,788095684485990E-003	3,000000000000000E+000
2,4300250E-001	-2,835994977431255E-003	3,000000000000000E+000
2,3896183E-001	-2,925457729159260E-003	3,000000000000000E+000
2,3499967E-001	-2,954373646490344E-003	3,000000000000000E+000
2,3097491E-001	-3,066572291370695E-003	3,000000000000000E+000
2,2697775E-001	-3,088060594462955E-003	3,000000000000000E+000
2,2297314E-001	-3,164678612140249E-003	3,000000000000000E+000
2,1897280E-001	-3,207671911998961E-003	3,000000000000000E+000
2,1494704E-001	-3,277286746298257E-003	3,000000000000000E+000
2,1099122E-001	-3,314733046055249E-003	3,000000000000000E+000
2,0698874E-001	-3,384354033995705E-003	3,000000000000000E+000
2,0295021E-001	-3,438816132782241E-003	3,000000000000000E+000
1,9895306E-001	-3,476994754237236E-003	3,000000000000000E+000
1,9497922E-001	-3,529949385362351E-003	3,000000000000000E+000
1,9098523E-001	-3,606494770994884E-003	3,000000000000000E+000
1,8699127E-001	-3,649612045086931E-003	3,000000000000000E+000
1,8300682E-001	-3,708812808326904E-003	3,000000000000000E+000
1,7896935E-001	-3,750981118274568E-003	3,000000000000000E+000
1,7495415E-001	-3,815093314389931E-003	3,000000000000000E+000
1,7096867E-001	-3,865740780788156E-003	3,000000000000000E+000
1,6694604E-001	-3,911100518356164E-003	3,000000000000000E+000
1,6300084E-001	-3,946285871077440E-003	3,000000000000000E+000
1,5897930E-001	-4,024690106436732E-003	3,000000000000000E+000
1,5498108E-001	-4,049719299574552E-003	3,000000000000000E+000
1,5098284E-001	-4,126501861012211E-003	3,000000000000000E+000
1,4701220E-001	-4,160833660231809E-003	3,000000000000000E+000
1,4295563E-001	-4,216639025091548E-003	3,000000000000000E+000
1,3900515E-001	-4,246946022047067E-003	3,000000000000000E+000
1,3500904E-001	-4,284468411949779E-003	3,000000000000000E+000
1,3098431E-001	-4,345342351168957E-003	3,000000000000000E+000
1,2697759E-001	-4,406414359335836E-003	3,000000000000000E+000
1,2293269E-001	-4,453302945977247E-003	3,000000000000000E+000
1,1898752E-001	-4,511849306355620E-003	3,000000000000000E+000
1,1494048E-001	-4,554463249304613E-003	3,000000000000000E+000
1,1098257E-001	-4,612128452410810E-003	3,000000000000000E+000
1,0699707E-001	-4,637883396450569E-003	3,000000000000000E+000
1,0299673E-001	-4,670932234148481E-003	3,000000000000000E+000
9,9002756E-002	-4,734557162009868E-003	3,000000000000000E+000
9,4990738E-002	-4,799631853529700E-003	3,000000000000000E+000
9,1032825E-002	-4,827315976096234E-003	3,000000000000000E+000
8,6967774E-002	-4,899443066177692E-003	3,000000000000000E+000
8,2995005E-002	-4,923729396978160E-003	3,000000000000000E+000
7,8993596E-002	-4,987847337664178E-003	3,000000000000000E+000
7,4974157E-002	-5,002211849286030E-003	3,000000000000000E+000
7,1035326E-002	-5,050790918984475E-003	3,000000000000000E+000
6,6991501E-002	-5,114342608673415E-003	3,000000000000000E+000
6,3433535E-002	-5,220264972498015E-003	3,000000000000000E+000
6,7197293E-002	-7,416255445744186E-004	4,000000000000000E+000
7,1200825E-002	-3,867731704505986E-004	4,000000000000000E+000
7,5152367E-002	-7,542963631282048E-005	4,000000000000000E+000
7,9193026E-002	2,055600540289662E-004	4,000000000000000E+000
8,3194435E-002	3,890482463096611E-004	4,000000000000000E+000
8,7162964E-002	5,971046095207106E-004	4,000000000000000E+000
9,1188759E-002	7,381441725253096E-004	4,000000000000000E+000
9,5210321E-002	9,278194879698311E-004	4,000000000000000E+000
9,9184155E-002	1,032393211517052E-003	4,000000000000000E+000
1,0319935E-001	1,166700877446508E-003	4,000000000000000E+000
1,0719652E-001	1,286126644420930E-003	4,000000000000000E+000
1,1117670E-001	1,439666923943154E-003	4,000000000000000E+000
1,1517599E-001	1,534268928379687E-003	4,000000000000000E+000
1,1919437E-001	1,665184604159254E-003	4,000000000000000E+000
1,2317137E-001	1,731061697076562E-003	4,000000000000000E+000
1,2714626E-001	1,865360517816345E-003	4,000000000000000E+000
1,3119857E-001	1,928539660083415E-003	4,000000000000000E+000
1,3522545E-001	2,010416323072507E-003	4,000000000000000E+000
1,3919502E-001	2,115435514295119E-003	4,000000000000000E+000
1,4316039E-001	2,218462689698851E-003	4,000000000000000E+000
1,4719148E-001	2,276510685785783E-003	4,000000000000000E+000
1,5114090E-001	2,392617758636747E-003	4,000000000000000E+000
1,5514974E-001	2,431773398913931E-003	4,000000000000000E+000
1,5917344E-001	2,553888184694295E-003	4,000000000000000E+000
1,6314936E-001	2,596769280797974E-003	4,000000000000000E+000
1,6716456E-001	2,694959664141704E-003	4,000000000000000E+000
1,7118084E-001	2,740197178758952E-003	4,000000000000000E+000
1,7514084E-001	2,832786712436551E-003	4,000000000000000E+000
1,7916454E-001	2,899208281936207E-003	4,000000000000000E+000
1,8317975E-001	2,995252571054156E-003	4,000000000000000E+000
1,8717162E-001	3,035488739543433E-003	4,000000000000000E+000
1,9116451E-001	3,140920291924785E-003	4,000000000000000E+000
1,9515640E-001	3,179901913932158E-003	4,000000000000000E+000
1,9916840E-001	3,239031849362719E-003	4,000000000000000E+000
2,0317829E-001	3,309481556748833E-003	4,000000000000000E+000
2,0714575E-001	3,419169693087403E-003	4,000000000000000E+000
2,1119915E-001	3,460917980393982E-003	4,000000000000000E+000
2,1520691E-001	3,558200213471238E-003	4,000000000000000E+000
2,1918920E-001	3,604943678106390E-003	4,000000000000000E+000
2,2319487E-001	3,706815070674774E-003	4,000000000000000E+000
2,2717400E-001	3,750292241723699E-003	4,000000000000000E+000
2,3120300E-001	3,867746025813801E-003	4,000000000000000E+000
2,3522559E-001	3,898649733956627E-003	4,000000000000000E+000
2,3918036E-001	4,000538886935447E-003	4,000000000000000E+000
2,4318705E-001	4,056547491927645E-003	4,000000000000000E+000
2,4717571E-001	4,155232953861644E-003	4,000000000000000E+000
2,5115910E-001	4,213796323003616E-003	4,000000000000000E+000
2,5518492E-001	4,330856618051070E-003	4,000000000000000E+000
2,5917357E-001	4,384223788090631E-003	4,000000000000000E+000
2,6317391E-001	4,463517201656948E-003	4,000000000000000E+000
2,6718491E-001	4,558977770809901E-003	4,000000000000000E+000
2,7118206E-001	4,671881050550539E-003	4,000000000000000E+000
2,7517813E-001	4,747553802493115E-003	4,000000000000000E+000
2,7914986E-001	4,884567136388008E-003	4,000000000000000E+000
2,8320003E-001	4,944289078492956E-003	4,000000000000000E+000
2,8717810E-001	5,082077408992032E-003	4,000000000000000E+000
2,9116148E-001	5,147494330433097E-003	4,000000000000000E+000
2,9516926E-001	5,278939708255673E-003	4,000000000000000E+000
2,9918978E-001	5,370295695886158E-003	4,000000000000000E+000
3,0313388E-001	5,507548324304615E-003	4,000000000000000E+000
3,0717349E-001	5,591089850188156E-003	4,000000000000000E+000
3,1118551E-001	5,754701633931186E-003	4,000000000000000E+000
3,1514129E-001	5,843335114251308E-003	4,000000000000000E+000
3,1915435E-001	6,004832539878810E-003	4,000000000000000E+000
3,2315052E-001	6,097047451071910E-003	4,000000000000000E+000
3,2712111E-001	6,216306578102765E-003	4,000000000000000E+000
3,3112884E-001	6,357718660082258E-003	4,000000000000000E+000
3,3519289E-001	6,521899181987298E-003	4,000000000000000E+000
3,3917624E-001	6,620959691645112E-003	4,000000000000000E+000
3,4315008E-001	6,773883776784534E-003	4,000000000000000E+000
3,4718332E-001	6,869696720564700E-003	4,000000000000000E+000
3,5118365E-001	7,042501686454539E-003	4,000000000000000E+000
3,5514584E-001	7,128235329016928E-003	4,000000000000000E+000
3,5911965E-001	7,280338750004209E-003	4,000000000000000E+000
3,6312407E-001	7,406538888062662E-003	4,000000000000000E+000
3,6096761E-001	2,012267928370825E-003	4,000000000000000E+000
3,5691947E-001	1,374731664933886E-003	4,000000000000000E+000
3,5297433E-001	8,983401815183013E-004	4,000000000000000E+000
3,4896234E-001	4,961465051312403E-004	4,000000000000000E+000
3,4497148E-001	1,533288790701213E-004	4,000000000000000E+000
3,4096056E-001	-6,883928220070661E-005	4,000000000000000E+000
3,3692944E-001	-3,451963794608073E-004	4,000000000000000E+000
3,3295560E-001	-5,008349725004434E-004	4,000000000000000E+000
3,2891497E-001	-7,417891239229987E-004	4,000000000000000E+000
3,2492733E-001	-8,614942892361593E-004	4,000000000000000E+000
3,2092911E-001	-1,054467087871876E-003	4,000000000000000E+000
3,1693408E-001	-1,171415060424695E-003	4,000000000000000E+000
3,1296974E-001	-1,354859942087682E-003	4,000000000000000E+000
3,0898327E-001	-1,428129285361339E-003	4,000000000000000E+000
3,0495954E-001	-1,608435036022647E-003	4,000000000000000E+000
3,0099630E-001	-1,665093592237094E-003	4,000000000000000E+000
2,9700023E-001	-1,818394234962595E-003	4,000000000000000E+000
2,9296276E-001	-1,879457408297943E-003	4,000000000000000E+000
2,8897831E-001	-1,956745905772550E-003	4,000000000000000E+000
2,8495464E-001	-2,060499791898308E-003	4,000000000000000E+000
2,8099883E-001	-2,213255814745532E-003	4,000000000000000E+000
2,7697834E-001	-2,239152968185300E-003	4,000000000000000E+000
2,7295995E-001	-2,338917424721230E-003	4,000000000000000E+000
2,6896492E-001	-2,397921000414895E-003	4,000000000000000E+000
2,6496780E-001	-2,531128753819046E-003	4,000000000000000E+000
2,6097909E-001	-2,537931372595854E-003	4,000000000000000E+000
2,5695220E-001	-2,621380055239153E-003	4,000000000000000E+000
2,5302082E-001	-2,690603107516329E-003	4,000000000000000E+000
2,4899928E-001	-2,796730454671579E-003	4,000000000000000E+000
2,4497874E-001	-2,827767066062529E-003	4,000000000000000E+000
2,4095297E-001	-2,934321442808134E-003	4,000000000000000E+000
2,3700672E-001	-2,960704245601332E-003	4,000000000000000E+000
2,3300745E-001	-3,062405687564419E-003	4,000000000000000E+000
2,2897100E-001	-3,077419531715954E-003	4,000000000000000E+000
2,2496325E-001	-3,126785810309226E-003	4,000000000000000E+000
2,2098945E-001	-3,191391041683450E-003	4,000000000000000E+000
2,1695726E-001	-3,294795815034161E-003	4,000000000000000E+000
2,1298768E-001	-3,309225113601613E-003	4,000000000000000E+000
2,0898840E-001	-3,408365172718833E-003	4,000000000000000E+000
2,0496789E-001	-3,414111853392864E-003	4,000000000000000E+000
2,0098981E-001	-3,510312642902125E-003	4,000000000000000E+000
1,9696507E-001	-3,520945709573828E-003	4,000000000000000E+000
1,9298489E-001	-3,624589232963948E-003	4,000000000000000E+000
1,8897182E-001	-3,633800604196335E-003	4,000000000000000E+000
1,8497887E-001	-3,728977376643641E-003	4,000000000000000E+000
1,8098491E-001	-3,743145682165043E-003	4,000000000000000E+000
1,7695169E-001	-3,831517321790053E-003	4,000000000000000E+000
1,7300755E-001	-3,832144374124855E-003	4,000000000000000E+000
1,6899234E-001	-3,934704675985905E-003	4,000000000000000E+000
1,6501537E-001	-3,938905008706355E-003	4,000000000000000E+000
1,6095348E-001	-3,985819376895128E-003	4,000000000000000E+000
1,5698920E-001	-4,044211861279699E-003	4,000000000000000E+000
1,5296338E-001	-4,129281700847458E-003	4,000000000000000E+000
1,4895774E-001	-4,139154273919591E-003	4,000000000000000E+000
1,4500938E-001	-4,228168073799048E-003	4,000000000000000E+000
1,4097932E-001	-4,239821661435092E-003	4,000000000000000E+000
1,3696732E-001	-4,331654121617429E-003	4,000000000000000E+000
1,3299772E-001	-4,323402444343703E-003	4,000000000000000E+000
1,2898996E-001	-4,445020845095210E-003	4,000000000000000E+000
1,2496098E-001	-4,432086002553744E-003	4,000000000000000E+000
1,2097654E-001	-4,523051135846709E-003	4,000000000000000E+000
1,1697408E-001	-4,512799980147968E-003	4,000000000000000E+000
1,1298010E-001	-4,614318898448891E-003	4,000000000000000E+000
1,0897126E-001	-4,615825577477349E-003	4,000000000000000E+000
1,0498365E-001	-4,717106293052567E-003	4,000000000000000E+000
1,0102785E-001	-4,716245930871480E-003	4,000000000000000E+000
9,6982963E-002	-4,749537742706381E-003	4,000000000000000E+000
9,3000643E-002	-4,825468748296972E-003	4,000000000000000E+000
8,9016214E-002	-4,914142156242907E-003	4,000000000000000E+000
8,4959641E-002	-4,910430127589863E-003	4,000000000000000E+000
8,0987938E-002	-4,997516555401160E-003	4,000000000000000E+000
7,7003501E-002	-5,010938807471471E-003	4,000000000000000E+000
7,2998911E-002	-5,098218923295546E-003	4,000000000000000E+000
6,8995386E-002	-5,105552140270822E-003	4,000000000000000E+000
6,4996101E-002	-5,177398610410569E-003	4,000000000000000E+000
6,5191291E-002	-9,555401456569617E-004	4,000000000000000E+000
6,9214977E-002	-5,682903385301544E-004	4,000000000000000E+000
7,3152728E-002	-1,991793460042069E-004	4,000000000000000E+000
7,7171117E-002	5,647379587338111E-005	4,000000000000000E+000
8,1230864E-002	3,010410247523193E-004	4,000000000000000E+000
8,5183464E-002	4,722531074953123E-004	4,000000000000000E+000
8,9178517E-002	6,676778791895963E-004	4,000000000000000E+000
9,3174614E-002	7,911004302311796E-004	4,000000000000000E+000
9,7190879E-002	9,303272317993105E-004	4,000000000000000E+000
1,0118485E-001	1,080357838671065E-003	4,000000000000000E+000
1,0518414E-001	1,252479819514624E-003	4,000000000000000E+000
1,0919722E-001	1,334589127105174E-003	4,000000000000000E+000
1,1316042E-001	1,497106319826951E-003	4,000000000000000E+000
1,1716609E-001	1,557051776823461E-003	4,000000000000000E+000
1,2119719E-001	1,687430730978837E-003	4,000000000000000E+000
1,2519860E-001	1,759835334673384E-003	4,000000000000000E+000
1,2916392E-001	1,921188737368448E-003	4,000000000000000E+000
1,3320990E-001	1,957510212378118E-003	4,000000000000000E+000
1,3715403E-001	2,077814144286094E-003	4,000000000000000E+000
1,4116496E-001	2,129473176157463E-003	4,000000000000000E+000
1,4520881E-001	2,246463698611489E-003	4,000000000000000E+000
1,4919430E-001	2,311940030671807E-003	4,000000000000000E+000
1,5320101E-001	2,413715178893959E-003	4,000000000000000E+000
1,5716104E-001	2,458623862670116E-003	4,000000000000000E+000
1,6112956E-001	2,514513288487154E-003	4,000000000000000E+000
1,6519463E-001	2,610090495282852E-003	4,000000000000000E+000
1,6916421E-001	2,714141718267157E-003	4,000000000000000E+000
1,7316985E-001	2,781881880865603E-003	4,000000000000000E+000
1,7719249E-001	2,871164101331192E-003	4,000000000000000E+000
1,8116312E-001	2,901189038311711E-003	4,000000000000000E+000
1,8519846E-001	3,015044852872965E-003	4,000000000000000E+000
1,8915853E-001	3,060921743276109E-003	4,000000000000000E+000
1,9318114E-001	3,151690600336434E-003	4,000000000000000E+000
1,9720055E-001	3,186450534485637E-003	4,000000000000000E+000
2,0116486E-001	3,295312270387922E-003	4,000000000000000E+000
2,0518537E-001	3,334535188615623E-003	4,000000000000000E+000
2,0920904E-001	3,445716035963019E-003	4,000000000000000E+000
2,1314149E-001	3,482585854524392E-003	4,000000000000000E+000
2,1713653E-001	3,577901430617196E-003	4,000000000000000E+000
2,2116870E-001	3,615981855141916E-003	4,000000000000000E+000
2,2515631E-001	3,674096097610241E-003	4,000000000000000E+000
2,2918426E-001	3,758305527298951E-003	4,000000000000000E+000
2,3317505E-001	3,871154864908855E-003	4,000000000000000E+000
2,3719978E-001	3,930110569247844E-003	4,000000000000000E+000
2,4117467E-001	4,023501922751582E-003	4,000000000000000E+000
2,4516231E-001	4,074122926491938E-003	4,000000000000000E+000
2,4896173E-001	4,208576556266053E-003	4,000000000000000E+000
2,4941625E-001	4,263083450496197E-003	4,000000000000000E+000