File: fig_si_ecsa/TiO2/500.txt
EC-Lab ASCII FILE
Ewe/V	<I>/mA	cycle number
7,7162653E-002	-3,246048092842102E-002	1,000000000000000E+000
8,0941252E-002	-2,120977766753634E-002	1,000000000000000E+000
8,3943374E-002	-6,166428585528488E-003	1,000000000000000E+000
8,6944431E-002	1,894340751214762E-003	1,000000000000000E+000
9,0002768E-002	5,942109618445109E-003	1,000000000000000E+000
9,2991099E-002	8,533438839650548E-003	1,000000000000000E+000
9,6061096E-002	1,004738999330990E-002	1,000000000000000E+000
9,9013358E-002	1,133568020345089E-002	1,000000000000000E+000
1,0202396E-001	1,207297232031121E-002	1,000000000000000E+000
1,0501546E-001	1,275880125912310E-002	1,000000000000000E+000
1,0798682E-001	1,314790959602558E-002	1,000000000000000E+000
1,1097727E-001	1,364779695904872E-002	1,000000000000000E+000
1,1401228E-001	1,423059264804277E-002	1,000000000000000E+000
1,1703242E-001	1,445218686058070E-002	1,000000000000000E+000
1,2002499E-001	1,478367650674454E-002	1,000000000000000E+000
1,2299422E-001	1,460155524505866E-002	1,000000000000000E+000
1,2602711E-001	1,512623670835943E-002	1,000000000000000E+000
1,4403872E-001	1,724974863888445E-002	1,000000000000000E+000
1,4700371E-001	1,778746193910292E-002	1,000000000000000E+000
1,4999309E-001	1,806693010075830E-002	1,000000000000000E+000
1,5298566E-001	1,834144488020684E-002	1,000000000000000E+000
1,5601642E-001	1,862940425518089E-002	1,000000000000000E+000
1,5898883E-001	1,856218881948737E-002	1,000000000000000E+000
1,6197291E-001	1,869944799262963E-002	1,000000000000000E+000
1,6499199E-001	1,895839838289248E-002	1,000000000000000E+000
1,6804078E-001	1,910980620575886E-002	1,000000000000000E+000
1,7099623E-001	1,963725903240424E-002	1,000000000000000E+000
1,7395274E-001	1,938290739882281E-002	1,000000000000000E+000
1,7698985E-001	2,016081966859129E-002	1,000000000000000E+000
1,7999727E-001	2,025668815177695E-002	1,000000000000000E+000
1,8303123E-001	2,024076898507901E-002	1,000000000000000E+000
1,8598665E-001	2,011695513323911E-002	1,000000000000000E+000
1,8901530E-001	2,028180456424401E-002	1,000000000000000E+000
1,9196860E-001	2,069039561239255E-002	1,000000000000000E+000
2,1008314E-001	2,000842544738485E-002	1,000000000000000E+000
2,1301205E-001	2,057707128026081E-002	1,000000000000000E+000
2,1598555E-001	2,152121061266773E-002	1,000000000000000E+000
2,1902798E-001	2,198795445292498E-002	1,000000000000000E+000
2,2201100E-001	2,224559119592109E-002	1,000000000000000E+000
2,2499295E-001	2,232280413752755E-002	1,000000000000000E+000
2,2803113E-001	2,261503231622756E-002	1,000000000000000E+000
2,3102690E-001	2,272963357083632E-002	1,000000000000000E+000
2,3400992E-001	2,307346673519028E-002	1,000000000000000E+000
2,3702475E-001	2,338992365103976E-002	1,000000000000000E+000
2,4003218E-001	2,386239990664774E-002	1,000000000000000E+000
2,4303852E-001	2,385394667200871E-002	1,000000000000000E+000
2,4598444E-001	2,393862281880704E-002	1,000000000000000E+000
2,4900244E-001	2,406836138874902E-002	1,000000000000000E+000
2,5201306E-001	2,405488570204611E-002	1,000000000000000E+000
2,5500032E-001	2,443465373168388E-002	1,000000000000000E+000
2,5799289E-001	2,449764899938597E-002	1,000000000000000E+000
2,6101941E-001	2,489337147966985E-002	1,000000000000000E+000
2,6400456E-001	2,462650396329180E-002	1,000000000000000E+000
2,6700029E-001	2,503626802758349E-002	1,000000000000000E+000
2,7003846E-001	2,535173542855773E-002	1,000000000000000E+000
2,7297801E-001	2,565535469572444E-002	1,000000000000000E+000
2,7598542E-001	2,583963251405907E-002	1,000000000000000E+000
2,7903208E-001	2,615672752290263E-002	1,000000000000000E+000
2,8201300E-001	2,656553559063468E-002	1,000000000000000E+000
2,8501299E-001	2,655810675302446E-002	1,000000000000000E+000
2,8801301E-001	2,704628787978433E-002	1,000000000000000E+000
2,9097268E-001	2,763085201796561E-002	1,000000000000000E+000
2,9403526E-001	2,768967102828276E-002	1,000000000000000E+000
2,9701829E-001	2,807488769677652E-002	1,000000000000000E+000
3,0003843E-001	2,819231785906595E-002	1,000000000000000E+000
3,0303627E-001	2,815245549370754E-002	1,000000000000000E+000
3,0597579E-001	2,857520057538444E-002	1,000000000000000E+000
3,0894506E-001	2,868697051801265E-002	1,000000000000000E+000
3,1194717E-001	2,915919877988121E-002	1,000000000000000E+000
3,1495142E-001	2,919467543162895E-002	1,000000000000000E+000
3,1796303E-001	2,980728718628400E-002	1,000000000000000E+000
3,2098746E-001	3,019338835858636E-002	1,000000000000000E+000
3,2398534E-001	3,064729640067941E-002	1,000000000000000E+000
3,2699594E-001	3,107053523247788E-002	1,000000000000000E+000
3,3001184E-001	3,176120962962176E-002	1,000000000000000E+000
3,3296409E-001	3,210118744108412E-002	1,000000000000000E+000
3,3599061E-001	3,237944461862850E-002	1,000000000000000E+000
3,3902138E-001	3,286546792878647E-002	1,000000000000000E+000
3,4196514E-001	3,326278097099733E-002	1,000000000000000E+000
3,4497043E-001	3,356982866211577E-002	1,000000000000000E+000
3,4796089E-001	3,405793854876216E-002	1,000000000000000E+000
3,5100859E-001	3,455821624407274E-002	1,000000000000000E+000
3,5394815E-001	3,457215044262635E-002	1,000000000000000E+000
3,5697359E-001	3,508194291902733E-002	1,000000000000000E+000
3,6001280E-001	3,534697039746490E-002	1,000000000000000E+000
3,6300963E-001	3,603555995586144E-002	1,000000000000000E+000
3,6367914E-001	3,540154919028282E-002	1,000000000000000E+000
3,6071721E-001	3,496046038928100E-003	1,000000000000000E+000
3,5784242E-001	-3,750005290107251E-003	1,000000000000000E+000
3,5493892E-001	-7,597932646806110E-003	1,000000000000000E+000
3,5199621E-001	-9,440721875459232E-003	1,000000000000000E+000
3,4900472E-001	-1,115059004668080E-002	1,000000000000000E+000
3,4599411E-001	-1,213041602730096E-002	1,000000000000000E+000
3,4300369E-001	-1,314550608367424E-002	1,000000000000000E+000
3,3998141E-001	-1,387480445191615E-002	1,000000000000000E+000
3,3697078E-001	-1,471297284802453E-002	1,000000000000000E+000
3,3398139E-001	-1,509910985805620E-002	1,000000000000000E+000
3,3096766E-001	-1,537025750925142E-002	1,000000000000000E+000
3,2795700E-001	-1,609722200595975E-002	1,000000000000000E+000
3,2498038E-001	-1,693715939290996E-002	1,000000000000000E+000
3,2198992E-001	-1,709133775269338E-002	1,000000000000000E+000
3,1149030E-001	-1,809534947938821E-002	1,000000000000000E+000
3,0103239E-001	-1,860889323284531E-002	1,000000000000000E+000
2,9797089E-001	-1,884768025956879E-002	1,000000000000000E+000
2,9500061E-001	-1,905498081153678E-002	1,000000000000000E+000
2,9203561E-001	-1,937053353807032E-002	1,000000000000000E+000
2,8898361E-001	-1,915580276828327E-002	1,000000000000000E+000
2,8601122E-001	-1,944482241580975E-002	1,000000000000000E+000
2,8307277E-001	-1,956616096140351E-002	1,000000000000000E+000
2,7999005E-001	-1,961993361853981E-002	1,000000000000000E+000
2,7701762E-001	-1,991815106278716E-002	1,000000000000000E+000
2,7398047E-001	-2,025386592180844E-002	1,000000000000000E+000
2,7102399E-001	-2,041093411915224E-002	1,000000000000000E+000
2,6798475E-001	-2,035397981146370E-002	1,000000000000000E+000
2,6497838E-001	-2,068332916274401E-002	1,000000000000000E+000
2,6200807E-001	-2,067059390174109E-002	1,000000000000000E+000
2,5901657E-001	-2,055420732318044E-002	1,000000000000000E+000
2,5604945E-001	-2,067731392081545E-002	1,000000000000000E+000
2,3792218E-001	-2,375059777235343E-002	1,000000000000000E+000
2,3500496E-001	-2,268075561328763E-002	1,000000000000000E+000
2,3204845E-001	-2,231555759863110E-002	1,000000000000000E+000
2,2897844E-001	-2,197596855047673E-002	1,000000000000000E+000
2,2598483E-001	-2,187081241330200E-002	1,000000000000000E+000
2,2302409E-001	-2,219628926751376E-002	1,000000000000000E+000
2,2000498E-001	-2,227481043114998E-002	1,000000000000000E+000
2,1701667E-001	-2,241335689622143E-002	1,000000000000000E+000
2,1404000E-001	-2,251500979036788E-002	1,000000000000000E+000
2,1106757E-001	-2,227307756240615E-002	1,000000000000000E+000
2,0802091E-001	-2,266275229582487E-002	1,000000000000000E+000
2,0500712E-001	-2,287242577707120E-002	1,000000000000000E+000
2,0202518E-001	-2,297754712344613E-002	1,000000000000000E+000
1,9899125E-001	-2,259979327047612E-002	1,000000000000000E+000
1,9599123E-001	-2,274003590516971E-002	1,000000000000000E+000
1,9301671E-001	-2,274477417611509E-002	1,000000000000000E+000
1,9001353E-001	-2,285721657931905E-002	1,000000000000000E+000
1,8702415E-001	-2,321537579498708E-002	1,000000000000000E+000
1,8399234E-001	-2,352613825779470E-002	1,000000000000000E+000
1,8102734E-001	-2,354537993596756E-002	1,000000000000000E+000
1,7800932E-001	-2,354658300707030E-002	1,000000000000000E+000
1,7501567E-001	-2,358103373383821E-002	1,000000000000000E+000
1,7202418E-001	-2,383580477301922E-002	1,000000000000000E+000
1,6906978E-001	-2,399836712841838E-002	1,000000000000000E+000
1,6600509E-001	-2,414501222827115E-002	1,000000000000000E+000
1,6302207E-001	-2,443009470072058E-002	1,000000000000000E+000
1,6004330E-001	-2,391188753932111E-002	1,000000000000000E+000
1,5701042E-001	-2,426474050500677E-002	1,000000000000000E+000
1,5405497E-001	-2,418271569654784E-002	1,000000000000000E+000
1,5101573E-001	-2,464139623730771E-002	1,000000000000000E+000
1,4799663E-001	-2,465413049705800E-002	1,000000000000000E+000
1,4499240E-001	-2,483179440928825E-002	1,000000000000000E+000
1,4201045E-001	-2,495778368150546E-002	1,000000000000000E+000
1,3901258E-001	-2,532478563443871E-002	1,000000000000000E+000
1,3599561E-001	-2,538236644532949E-002	1,000000000000000E+000
1,3302849E-001	-2,582849245946917E-002	1,000000000000000E+000
1,3001788E-001	-2,560261934922881E-002	1,000000000000000E+000
1,2703700E-001	-2,554188816025596E-002	1,000000000000000E+000
1,2398821E-001	-2,546898881579768E-002	1,000000000000000E+000
1,2099351E-001	-2,578625909599286E-002	1,000000000000000E+000
1,1800095E-001	-2,577214678927289E-002	1,000000000000000E+000
1,1502641E-001	-2,594998877894900E-002	1,000000000000000E+000
1,1204765E-001	-2,629389327759979E-002	1,000000000000000E+000
1,0901368E-001	-2,574561980064671E-002	1,000000000000000E+000
1,0605931E-001	-2,615068003150439E-002	1,000000000000000E+000
1,0305295E-001	-2,602143647770089E-002	1,000000000000000E+000
1,0002009E-001	-2,639713975319552E-002	1,000000000000000E+000
9,6994624E-002	-2,656801327975694E-002	1,000000000000000E+000
9,4028585E-002	-2,685971277484578E-002	1,000000000000000E+000
9,1038115E-002	-2,690272260871188E-002	1,000000000000000E+000
8,8034943E-002	-2,729359728093383E-002	1,000000000000000E+000
8,5011609E-002	-2,737646953513226E-002	1,000000000000000E+000
8,2086936E-002	-2,760453764777693E-002	1,000000000000000E+000
7,9001017E-002	-2,770558993021649E-002	1,000000000000000E+000
7,6004215E-002	-2,768857651729684E-002	1,000000000000000E+000
7,3022246E-002	-2,794200445229456E-002	1,000000000000000E+000
7,0051961E-002	-2,790009140881006E-002	1,000000000000000E+000
6,7018017E-002	-2,810003971858851E-002	1,000000000000000E+000
6,4127751E-002	-2,812593740600289E-002	1,000000000000000E+000
6,3376255E-002	-2,732801251113415E-002	2,000000000000000E+000
6,6532165E-002	-3,696171510910062E-003	2,000000000000000E+000
6,9418646E-002	3,813564636427853E-003	2,000000000000000E+000
7,2308317E-002	7,370501150237241E-003	2,000000000000000E+000
7,5342260E-002	9,889850968142544E-003	2,000000000000000E+000
7,8313611E-002	1,165231462760455E-002	2,000000000000000E+000
8,1310429E-002	1,265552037956591E-002	2,000000000000000E+000
8,4308296E-002	1,295652141602155E-002	2,000000000000000E+000
8,7298743E-002	1,350362839790861E-002	2,000000000000000E+000
1,0529871E-001	1,578837589456988E-002	2,000000000000000E+000
1,0837401E-001	1,626170377150826E-002	2,000000000000000E+000
1,1129975E-001	1,642973943974843E-002	2,000000000000000E+000
1,1427640E-001	1,642726318075605E-002	2,000000000000000E+000
1,1730293E-001	1,657195000613380E-002	2,000000000000000E+000
1,2032413E-001	1,670991610949892E-002	2,000000000000000E+000
1,2328169E-001	1,686415409676556E-002	2,000000000000000E+000
1,2631352E-001	1,742026052185491E-002	2,000000000000000E+000
1,2932943E-001	1,784193995283406E-002	2,000000000000000E+000
1,3235277E-001	1,787696148757184E-002	2,000000000000000E+000
1,3534108E-001	1,767991864875920E-002	2,000000000000000E+000
1,3834956E-001	1,828590480262288E-002	2,000000000000000E+000
1,4133258E-001	1,823107358925179E-002	2,000000000000000E+000
1,4428909E-001	1,827989104721281E-002	2,000000000000000E+000
1,4731559E-001	1,867008561061489E-002	2,000000000000000E+000
1,5031135E-001	1,875534072961378E-002	2,000000000000000E+000
1,5331663E-001	1,912961697841332E-002	2,000000000000000E+000
1,7126673E-001	1,966968435024480E-002	2,000000000000000E+000
1,7428583E-001	1,963151864765683E-002	2,000000000000000E+000
1,7724340E-001	2,007792698027008E-002	2,000000000000000E+000
1,8030065E-001	2,058941613439752E-002	2,000000000000000E+000
1,8330915E-001	2,072760632897071E-002	2,000000000000000E+000
1,8629961E-001	2,075682322982980E-002	2,000000000000000E+000
1,8931125E-001	2,094644251782379E-002	2,000000000000000E+000
1,9230701E-001	2,120857155629582E-002	2,000000000000000E+000
1,9533353E-001	2,134704639158574E-002	2,000000000000000E+000
1,9832608E-001	2,152594857317230E-002	2,000000000000000E+000
2,0129216E-001	2,170962648273819E-002	2,000000000000000E+000
2,0432928E-001	2,161592994727672E-002	2,000000000000000E+000
2,0727727E-001	2,169381644206528E-002	2,000000000000000E+000
2,1033773E-001	2,182938982716426E-002	2,000000000000000E+000
2,1327622E-001	2,160068665600395E-002	2,000000000000000E+000
2,1629319E-001	2,217920218592750E-002	2,000000000000000E+000
2,1930379E-001	2,231696916108677E-002	2,000000000000000E+000
2,2233985E-001	2,245038509782821E-002	2,000000000000000E+000
2,2533454E-001	2,214397262367934E-002	2,000000000000000E+000
2,2828892E-001	2,280154168693110E-002	2,000000000000000E+000
2,3128361E-001	2,318201827963806E-002	2,000000000000000E+000
2,3431650E-001	2,348514152941383E-002	2,000000000000000E+000
2,3732601E-001	2,353819635593234E-002	2,000000000000000E+000
2,4032494E-001	2,394049795152062E-002	2,000000000000000E+000
2,4330907E-001	2,394063920211112E-002	2,000000000000000E+000
2,4632707E-001	2,425589400890105E-002	2,000000000000000E+000
2,4933662E-001	2,426063378637383E-002	2,000000000000000E+000
2,5230369E-001	2,467722349239110E-002	2,000000000000000E+000
2,5534189E-001	2,457875399583524E-002	2,000000000000000E+000
2,5829524E-001	2,468493454216508E-002	2,000000000000000E+000
2,6128462E-001	2,489326616099186E-002	2,000000000000000E+000
2,6431432E-001	2,480176250982269E-002	2,000000000000000E+000
2,6728672E-001	2,526981704350978E-002	2,000000000000000E+000
2,7031854E-001	2,547988294342459E-002	2,000000000000000E+000
2,7328879E-001	2,574349530469691E-002	2,000000000000000E+000
2,7629200E-001	2,579757745924240E-002	2,000000000000000E+000
2,7928457E-001	2,620988746113864E-002	2,000000000000000E+000
2,8229624E-001	2,659294642580790E-002	2,000000000000000E+000
2,8528878E-001	2,682232362187481E-002	2,000000000000000E+000
2,8833759E-001	2,708855527614812E-002	2,000000000000000E+000
2,9134288E-001	2,772479457174393E-002	2,000000000000000E+000
2,9428667E-001	2,796269499150289E-002	2,000000000000000E+000
2,9733863E-001	2,808500482448528E-002	2,000000000000000E+000
3,0030683E-001	2,810300819975153E-002	2,000000000000000E+000
3,0325058E-001	2,844762055853305E-002	2,000000000000000E+000
3,0627391E-001	2,879559272736926E-002	2,000000000000000E+000
3,0927706E-001	2,872665658651380E-002	2,000000000000000E+000
3,1223041E-001	2,953917944655088E-002	2,000000000000000E+000
3,1532058E-001	2,944990724710000E-002	2,000000000000000E+000
3,1826964E-001	2,992255893817247E-002	2,000000000000000E+000
3,2127282E-001	3,026243308381210E-002	2,000000000000000E+000
3,2428765E-001	3,066756338295024E-002	2,000000000000000E+000
3,2726219E-001	3,088643310871309E-002	2,000000000000000E+000
3,3031204E-001	3,151223856629159E-002	2,000000000000000E+000
3,3324626E-001	3,188458153858342E-002	2,000000000000000E+000
3,3629295E-001	3,226742835936930E-002	2,000000000000000E+000
3,3926108E-001	3,266350207316773E-002	2,000000000000000E+000
3,4228867E-001	3,329677061103420E-002	2,000000000000000E+000
3,4526321E-001	3,352894279750120E-002	2,000000000000000E+000
3,4830776E-001	3,402256917252083E-002	2,000000000000000E+000
3,5129821E-001	3,442196888257368E-002	2,000000000000000E+000
3,5422397E-001	3,465353816864070E-002	2,000000000000000E+000
3,5729286E-001	3,534909335333709E-002	2,000000000000000E+000
3,6028549E-001	3,550090286525021E-002	2,000000000000000E+000
3,6315557E-001	3,588260282473738E-002	2,000000000000000E+000
3,6362186E-001	3,536207973957062E-002	2,000000000000000E+000
3,6070982E-001	3,647855134084298E-003	2,000000000000000E+000
3,5038498E-001	-1,016167384097925E-002	2,000000000000000E+000
3,4000576E-001	-1,379602068421568E-002	2,000000000000000E+000
3,3700585E-001	-1,470482412696580E-002	2,000000000000000E+000
3,3396548E-001	-1,528710915145998E-002	2,000000000000000E+000
3,3099094E-001	-1,566067691641763E-002	2,000000000000000E+000
3,2796231E-001	-1,607139045336223E-002	2,000000000000000E+000
3,2496873E-001	-1,638871022138724E-002	2,000000000000000E+000
3,2197511E-001	-1,699363688627881E-002	2,000000000000000E+000
3,1899628E-001	-1,727168910434151E-002	2,000000000000000E+000
3,1602916E-001	-1,773935796700249E-002	2,000000000000000E+000
3,1301329E-001	-1,811257212911083E-002	2,000000000000000E+000
3,0997509E-001	-1,806127752509690E-002	2,000000000000000E+000
3,0698040E-001	-1,830501583228605E-002	2,000000000000000E+000
3,0401543E-001	-1,826185660785168E-002	2,000000000000000E+000
3,0101967E-001	-1,870936085308333E-002	2,000000000000000E+000
2,9798254E-001	-1,890074238751063E-002	2,000000000000000E+000
2,9499847E-001	-1,898741289915046E-002	2,000000000000000E+000
2,7692956E-001	-2,060491123888331E-002	2,000000000000000E+000
2,7396348E-001	-2,062245413617345E-002	2,000000000000000E+000
2,7098048E-001	-2,042020879242855E-002	2,000000000000000E+000
2,6797628E-001	-2,061021611007163E-002	2,000000000000000E+000
2,6502398E-001	-2,058117817230390E-002	2,000000000000000E+000
2,6203248E-001	-2,057198124627269E-002	2,000000000000000E+000
2,5901023E-001	-2,097428309449850E-002	2,000000000000000E+000
2,5600705E-001	-2,097537913626485E-002	2,000000000000000E+000
2,5300917E-001	-2,117875888870918E-002	2,000000000000000E+000
2,5004205E-001	-2,065835450614234E-002	2,000000000000000E+000
2,4700812E-001	-2,086456487975537E-002	2,000000000000000E+000
2,4404843E-001	-2,106967620137667E-002	2,000000000000000E+000
2,4100602E-001	-2,137495759032189E-002	2,000000000000000E+000
2,3804949E-001	-2,153663459264660E-002	2,000000000000000E+000
2,3502193E-001	-2,190625275559585E-002	2,000000000000000E+000
2,3208664E-001	-2,197748906837665E-002	2,000000000000000E+000
2,2901878E-001	-2,203103981527316E-002	2,000000000000000E+000
2,2597633E-001	-2,222090583664887E-002	2,000000000000000E+000
2,2305483E-001	-2,245954979581355E-002	2,000000000000000E+000
2,1999756E-001	-2,242937886452027E-002	2,000000000000000E+000
2,1702515E-001	-2,236472308221787E-002	2,000000000000000E+000
2,1401030E-001	-2,253821281879528E-002	2,000000000000000E+000
2,1105699E-001	-2,230975632038382E-002	2,000000000000000E+000
2,0802622E-001	-2,270378152914218E-002	2,000000000000000E+000
2,0503999E-001	-2,280373721886358E-002	2,000000000000000E+000
2,0200607E-001	-2,306558248084101E-002	2,000000000000000E+000
1,9898170E-001	-2,274555265830713E-002	2,000000000000000E+000
1,9600186E-001	-2,291915069023770E-002	2,000000000000000E+000
1,9304322E-001	-2,315542380044150E-002	2,000000000000000E+000
1,9000399E-001	-2,336573566369937E-002	2,000000000000000E+000
1,8699230E-001	-2,337149898610529E-002	2,000000000000000E+000
1,8400504E-001	-2,383516880743430E-002	2,000000000000000E+000
1,8100612E-001	-2,388606659668668E-002	2,000000000000000E+000
1,7801142E-001	-2,377712671497856E-002	2,000000000000000E+000
1,7498493E-001	-2,386385369188956E-002	2,000000000000000E+000
1,7200933E-001	-2,405729372468263E-002	2,000000000000000E+000
1,6900510E-001	-2,417879090555486E-002	2,000000000000000E+000
1,6599554E-001	-2,419972889038036E-002	2,000000000000000E+000
1,6304010E-001	-2,443030668614984E-002	2,000000000000000E+000
1,6001253E-001	-2,406221005165005E-002	2,000000000000000E+000
1,5700616E-001	-2,435281269208647E-002	2,000000000000000E+000
1,5400827E-001	-2,427322841766805E-002	2,000000000000000E+000
1,5102953E-001	-2,453457851717955E-002	2,000000000000000E+000
1,4801043E-001	-2,447324786690937E-002	2,000000000000000E+000
1,4504226E-001	-2,479122641185921E-002	2,000000000000000E+000
1,4202423E-001	-2,489967000494486E-002	2,000000000000000E+000
1,3899665E-001	-2,516837660651716E-002	2,000000000000000E+000
1,3600303E-001	-2,527859073517097E-002	2,000000000000000E+000
1,3304760E-001	-2,590694330218762E-002	2,000000000000000E+000
1,3002956E-001	-2,574381580739596E-002	2,000000000000000E+000
1,2703912E-001	-2,561234466702436E-002	2,000000000000000E+000
1,2398502E-001	-2,572128393997747E-002	2,000000000000000E+000
1,2103170E-001	-2,576394194087075E-002	2,000000000000000E+000
1,1800945E-001	-2,598574839147560E-002	2,000000000000000E+000
1,1504020E-001	-2,605553299144955E-002	2,000000000000000E+000
1,1201050E-001	-2,604623215908441E-002	2,000000000000000E+000
1,0904021E-001	-2,590676766259192E-002	2,000000000000000E+000
1,0603280E-001	-2,642338351627883E-002	2,000000000000000E+000
1,0302218E-001	-2,629962353199117E-002	2,000000000000000E+000
1,0000098E-001	-2,665081454647913E-002	2,000000000000000E+000
9,7005226E-002	-2,661898043435129E-002	2,000000000000000E+000
9,4044484E-002	-2,671515287551707E-002	2,000000000000000E+000
9,1039196E-002	-2,694191039821207E-002	2,000000000000000E+000
8,8033892E-002	-2,714002012807115E-002	2,000000000000000E+000
8,5020103E-002	-2,727559356167650E-002	2,000000000000000E+000
8,2045570E-002	-2,785747010703843E-002	2,000000000000000E+000
7,9033911E-002	-2,793181764597330E-002	2,000000000000000E+000
7,6041326E-002	-2,774092395257963E-002	2,000000000000000E+000
7,3012710E-002	-2,780353138829605E-002	2,000000000000000E+000
7,0031807E-002	-2,772299297066627E-002	2,000000000000000E+000
6,7016959E-002	-2,820919122960830E-002	2,000000000000000E+000
6,4142756E-002	-2,837091616259269E-002	2,000000000000000E+000
6,3414440E-002	-2,734966017305851E-002	3,000000000000000E+000
6,6525802E-002	-3,842993550266405E-003	3,000000000000000E+000
6,9443047E-002	3,758776340621099E-003	3,000000000000000E+000
7,2355002E-002	7,359783840102954E-003	3,000000000000000E+000
7,5297706E-002	9,678691177416321E-003	3,000000000000000E+000
7,8314677E-002	1,152186910924986E-002	3,000000000000000E+000
8,1323154E-002	1,220953723208770E-002	3,000000000000000E+000
8,4348604E-002	1,254070846799656E-002	3,000000000000000E+000
8,7293431E-002	1,312010873294234E-002	3,000000000000000E+000
9,0359196E-002	1,338729533684575E-002	3,000000000000000E+000
9,3340099E-002	1,407464505084337E-002	3,000000000000000E+000
9,6319936E-002	1,439799906478986E-002	3,000000000000000E+000
1,0685284E-001	1,583169983654070E-002	3,000000000000000E+000
1,1729762E-001	1,657159589659493E-002	3,000000000000000E+000
1,2030823E-001	1,661298598709340E-002	3,000000000000000E+000
1,2330397E-001	1,700211856728456E-002	3,000000000000000E+000
1,2628275E-001	1,732828426692221E-002	3,000000000000000E+000
1,2932093E-001	1,786564057086548E-002	3,000000000000000E+000
1,3231139E-001	1,791127596293844E-002	3,000000000000000E+000
1,3529970E-001	1,756105512180911E-002	3,000000000000000E+000
1,3834003E-001	1,838991002275892E-002	3,000000000000000E+000
1,4130288E-001	1,805702470301185E-002	3,000000000000000E+000
1,4430074E-001	1,827635300914049E-002	3,000000000000000E+000
1,4733045E-001	1,857740199799693E-002	3,000000000000000E+000
1,5032937E-001	1,878151827602573E-002	3,000000000000000E+000
1,5329650E-001	1,912112729446055E-002	3,000000000000000E+000
1,5632831E-001	1,941049948719514E-002	3,000000000000000E+000
1,5933254E-001	1,952193437136884E-002	3,000000000000000E+000
1,6230071E-001	1,965423994180227E-002	3,000000000000000E+000
1,8035583E-001	2,176904817436798E-002	3,000000000000000E+000
1,8333991E-001	2,091206226113080E-002	3,000000000000000E+000
1,8630704E-001	2,066220790220541E-002	3,000000000000000E+000
1,8935157E-001	2,100961376911259E-002	3,000000000000000E+000
1,9233672E-001	2,124312886775851E-002	3,000000000000000E+000
1,9528049E-001	2,140943977226722E-002	3,000000000000000E+000
1,9829640E-001	2,131751245138319E-002	3,000000000000000E+000
2,0127307E-001	2,157426529002904E-002	3,000000000000000E+000
2,0433246E-001	2,168019935561455E-002	3,000000000000000E+000
2,0734091E-001	2,167234564007633E-002	3,000000000000000E+000
2,1028258E-001	2,174605901543847E-002	3,000000000000000E+000
2,1330273E-001	2,187738661935634E-002	3,000000000000000E+000
2,1627302E-001	2,228948578623302E-002	3,000000000000000E+000
2,1931864E-001	2,246078384390182E-002	3,000000000000000E+000
2,2231545E-001	2,281975579373671E-002	3,000000000000000E+000
2,2532181E-001	2,247281013721171E-002	3,000000000000000E+000
2,2827722E-001	2,259961198231186E-002	3,000000000000000E+000
2,3131967E-001	2,304839104827905E-002	3,000000000000000E+000
2,3429209E-001	2,320511466556735E-002	3,000000000000000E+000
2,3732284E-001	2,337142516828156E-002	3,000000000000000E+000
2,4035892E-001	2,392543040615347E-002	3,000000000000000E+000
2,4334405E-001	2,411671239113072E-002	3,000000000000000E+000
2,4634299E-001	2,431383113879643E-002	3,000000000000000E+000
2,4933769E-001	2,452552105832084E-002	3,000000000000000E+000
2,5229099E-001	2,485092823674989E-002	3,000000000000000E+000
2,5531647E-001	2,468854284193689E-002	3,000000000000000E+000
2,5832388E-001	2,471938567072768E-002	3,000000000000000E+000
2,6131219E-001	2,499651077394238E-002	3,000000000000000E+000
2,6428673E-001	2,495311270629624E-002	3,000000000000000E+000
2,6728883E-001	2,541091014912433E-002	3,000000000000000E+000
2,7032489E-001	2,557329535557068E-002	3,000000000000000E+000
2,7332380E-001	2,583004589339705E-002	3,000000000000000E+000
2,7631429E-001	2,582194790658027E-002	3,000000000000000E+000
2,7930683E-001	2,614813180520692E-002	3,000000000000000E+000
2,8232276E-001	2,645783245962874E-002	3,000000000000000E+000
2,8530473E-001	2,674210427964381E-002	3,000000000000000E+000
2,8830254E-001	2,691608988162553E-002	3,000000000000000E+000
2,9130894E-001	2,753945514632505E-002	3,000000000000000E+000
2,9428771E-001	2,768242086474648E-002	3,000000000000000E+000
2,9728135E-001	2,810417562795919E-002	3,000000000000000E+000
3,0029091E-001	2,836036197913933E-002	3,000000000000000E+000
3,0327499E-001	2,846254688968958E-002	3,000000000000000E+000
3,0626222E-001	2,884588837696350E-002	3,000000000000000E+000
3,0927071E-001	2,890938036216539E-002	3,000000000000000E+000
3,1226009E-001	2,931266932096654E-002	3,000000000000000E+000
3,1525588E-001	2,923867613491088E-002	3,000000000000000E+000
3,1827706E-001	3,003493176624439E-002	3,000000000000000E+000
3,2129189E-001	3,038301006017713E-002	3,000000000000000E+000
3,2429403E-001	3,076384014154122E-002	3,000000000000000E+000
3,2727388E-001	3,082644474973983E-002	3,000000000000000E+000
3,3030570E-001	3,145118786657498E-002	3,000000000000000E+000
3,3331415E-001	3,190559066004223E-002	3,000000000000000E+000
3,3623037E-001	3,221083501234207E-002	3,000000000000000E+000
3,3932793E-001	3,263782422234518E-002	3,000000000000000E+000
3,4229186E-001	3,333988753486974E-002	3,000000000000000E+000
3,4530461E-001	3,363392182210295E-002	3,000000000000000E+000
3,4832475E-001	3,394836223904152E-002	3,000000000000000E+000
3,5128653E-001	3,416854156845753E-002	3,000000000000000E+000
3,5425577E-001	3,443873395210373E-002	3,000000000000000E+000
3,5725787E-001	3,509251640045685E-002	3,000000000000000E+000
3,6026004E-001	3,541551925728634E-002	3,000000000000000E+000
3,6309826E-001	3,602558709038323E-002	3,000000000000000E+000
3,6362186E-001	3,528440743684769E-002	3,000000000000000E+000
3,6066839E-001	3,378723029464304E-003	3,000000000000000E+000
3,5784557E-001	-3,754284872646466E-003	3,000000000000000E+000
3,5493997E-001	-7,594572420506034E-003	3,000000000000000E+000
3,5197499E-001	-9,511922164973763E-003	3,000000000000000E+000
3,4898561E-001	-1,152523149418510E-002	3,000000000000000E+000
3,3098671E-001	-1,571161882930025E-002	3,000000000000000E+000
3,2799947E-001	-1,605759418473296E-002	3,000000000000000E+000
3,2501855E-001	-1,659601220853804E-002	3,000000000000000E+000
3,2200158E-001	-1,705483665824026E-002	3,000000000000000E+000
3,1896549E-001	-1,737746227303834E-002	3,000000000000000E+000
3,1597406E-001	-1,804111196563296E-002	3,000000000000000E+000
3,1301329E-001	-1,807012132930041E-002	3,000000000000000E+000
3,1001326E-001	-1,809948290772603E-002	3,000000000000000E+000
3,0698362E-001	-1,823355658800416E-002	3,000000000000000E+000
3,0397403E-001	-1,849993558607826E-002	3,000000000000000E+000
3,0097088E-001	-1,877586695425437E-002	3,000000000000000E+000
2,9800269E-001	-1,908045144773490E-002	3,000000000000000E+000
2,9504514E-001	-1,911193663646477E-002	3,000000000000000E+000
2,9204515E-001	-1,954210650930888E-002	3,000000000000000E+000
2,8900698E-001	-1,935532207304885E-002	3,000000000000000E+000
2,8602609E-001	-1,958774159094090E-002	3,000000000000000E+000
2,8299424E-001	-1,963027774844604E-002	3,000000000000000E+000
2,6506323E-001	-2,049512231072482E-002	3,000000000000000E+000
2,6207069E-001	-2,075346660624044E-002	3,000000000000000E+000
2,5904313E-001	-2,112807224208757E-002	3,000000000000000E+000
2,5603569E-001	-2,099242812214976E-002	3,000000000000000E+000
2,5301021E-001	-2,127549521254779E-002	3,000000000000000E+000
2,5004205E-001	-2,108368354553625E-002	3,000000000000000E+000
2,4702510E-001	-2,123680203739142E-002	3,000000000000000E+000
2,4400812E-001	-2,152612931968184E-002	3,000000000000000E+000
2,4102193E-001	-2,152064791112518E-002	3,000000000000000E+000
2,3800497E-001	-2,175914910104540E-002	3,000000000000000E+000
2,3503360E-001	-2,209590843510040E-002	3,000000000000000E+000
2,3202302E-001	-2,208480089474402E-002	3,000000000000000E+000
2,2900178E-001	-2,186950196038301E-002	3,000000000000000E+000
2,2597209E-001	-2,220159362130092E-002	3,000000000000000E+000
2,2301769E-001	-2,247836683373966E-002	3,000000000000000E+000
2,1998483E-001	-2,251939652665495E-002	3,000000000000000E+000
2,1703151E-001	-2,262402170648178E-002	3,000000000000000E+000
2,1401879E-001	-2,272786910705493E-002	3,000000000000000E+000
2,1100925E-001	-2,257436056445139E-002	3,000000000000000E+000
2,0801562E-001	-2,282237821539944E-002	3,000000000000000E+000
2,0504001E-001	-2,316872167446288E-002	3,000000000000000E+000
2,0202093E-001	-2,306968594590819E-002	3,000000000000000E+000
1,9900608E-001	-2,273989374468022E-002	3,000000000000000E+000
1,9601458E-001	-2,295275188953386E-002	3,000000000000000E+000
1,9301991E-001	-2,315768625986592E-002	3,000000000000000E+000
1,8999018E-001	-2,320151172534682E-002	3,000000000000000E+000
1,8695943E-001	-2,346692879210527E-002	3,000000000000000E+000
1,8401776E-001	-2,395302154966172E-002	3,000000000000000E+000
1,8099870E-001	-2,391963323356733E-002	3,000000000000000E+000
1,7798066E-001	-2,376191630901303E-002	3,000000000000000E+000
1,7499341E-001	-2,387609168444110E-002	3,000000000000000E+000
1,7202418E-001	-2,402952722776619E-002	3,000000000000000E+000
1,6898599E-001	-2,410231940019802E-002	3,000000000000000E+000
1,6601039E-001	-2,423007782918935E-002	3,000000000000000E+000
1,6298811E-001	-2,421500846685365E-002	3,000000000000000E+000
1,6001041E-001	-2,390686322744140E-002	3,000000000000000E+000
1,5701890E-001	-2,434099783042459E-002	3,000000000000000E+000
1,5400617E-001	-2,433770875520871E-002	3,000000000000000E+000
1,5102422E-001	-2,457921685385783E-002	3,000000000000000E+000
1,4800617E-001	-2,468635400550229E-002	3,000000000000000E+000
1,4501892E-001	-2,488096074497058E-002	3,000000000000000E+000
1,4203484E-001	-2,500086605505206E-002	3,000000000000000E+000
1,3903062E-001	-2,533351942838630E-002	3,000000000000000E+000
1,3600832E-001	-2,546796303714571E-002	3,000000000000000E+000
1,3303697E-001	-2,580599663956980E-002	3,000000000000000E+000
1,3004865E-001	-2,575163258047219E-002	3,000000000000000E+000
1,2701365E-001	-2,558843510875397E-002	3,000000000000000E+000
1,2396593E-001	-2,565312824743970E-002	3,000000000000000E+000
1,2102959E-001	-2,570809167648097E-002	3,000000000000000E+000
1,1799989E-001	-2,580840091266312E-002	3,000000000000000E+000
1,1502005E-001	-2,607265357356581E-002	3,000000000000000E+000
1,1200733E-001	-2,626128168170302E-002	3,000000000000000E+000
1,0902219E-001	-2,593647700187934E-002	3,000000000000000E+000
1,0604234E-001	-2,619920848115312E-002	3,000000000000000E+000
1,0300733E-001	-2,607014141904079E-002	3,000000000000000E+000
1,0002538E-001	-2,649164885224314E-002	3,000000000000000E+000
9,7031750E-002	-2,675437882498957E-002	3,000000000000000E+000
9,4054028E-002	-2,706227704483244E-002	3,000000000000000E+000
9,1068886E-002	-2,724054255789571E-002	3,000000000000000E+000
8,8030703E-002	-2,754713263776565E-002	3,000000000000000E+000
8,4977672E-002	-2,749326187202106E-002	3,000000000000000E+000
8,2031779E-002	-2,785736465132985E-002	3,000000000000000E+000
7,9031788E-002	-2,771121425717460E-002	3,000000000000000E+000
7,6018006E-002	-2,759198050059952E-002	3,000000000000000E+000
7,3019072E-002	-2,790373328187140E-002	3,000000000000000E+000
7,0023321E-002	-2,792053398499983E-002	3,000000000000000E+000
6,7021206E-002	-2,814174036555211E-002	3,000000000000000E+000
6,4159118E-002	-2,824126479806305E-002	3,000000000000000E+000
6,3414440E-002	-2,730318345129490E-002	4,000000000000000E+000
6,6540651E-002	-3,780777142891465E-003	4,000000000000000E+000
6,9400623E-002	3,634237571911100E-003	4,000000000000000E+000
7,2332725E-002	7,313342647042476E-003	4,000000000000000E+000
7,5299837E-002	9,784129872868030E-003	4,000000000000000E+000
7,8311488E-002	1,154712395550129E-002	4,000000000000000E+000
8,1331633E-002	1,224359907246250E-002	4,000000000000000E+000
8,4324211E-002	1,264558253610129E-002	4,000000000000000E+000
8,7357081E-002	1,337106014276893E-002	4,000000000000000E+000
9,0315714E-002	1,378255795073830E-002	4,000000000000000E+000
9,3348593E-002	1,415659821274554E-002	4,000000000000000E+000
9,6333735E-002	1,470724220719910E-002	4,000000000000000E+000
9,9321000E-002	1,509921486629334E-002	4,000000000000000E+000
1,0230719E-001	1,532229473600133E-002	4,000000000000000E+000
1,0530189E-001	1,574341194504492E-002	4,000000000000000E+000
1,0833159E-001	1,576049599397167E-002	4,000000000000000E+000
1,2629867E-001	1,727239024108307E-002	4,000000000000000E+000
1,2932837E-001	1,770114535287978E-002	4,000000000000000E+000
1,3233048E-001	1,789818673084184E-002	4,000000000000000E+000
1,3532516E-001	1,758935595737254E-002	4,000000000000000E+000
1,3830926E-001	1,827316924330563E-002	4,000000000000000E+000
1,4135379E-001	1,835630371937852E-002	4,000000000000000E+000
1,4428590E-001	1,834533697001464E-002	4,000000000000000E+000
1,4735167E-001	1,840476911173836E-002	4,000000000000000E+000
1,5030923E-001	1,880239166348474E-002	4,000000000000000E+000
1,5333574E-001	1,923645202684082E-002	4,000000000000000E+000
1,5629119E-001	1,937901524191449E-002	4,000000000000000E+000
1,5930815E-001	1,953643770725144E-002	4,000000000000000E+000
1,6225190E-001	1,963584375537014E-002	4,000000000000000E+000
1,6529965E-001	1,954740483557142E-002	4,000000000000000E+000
1,6834208E-001	1,985552725293220E-002	4,000000000000000E+000
1,7130175E-001	2,002710047680817E-002	4,000000000000000E+000
1,7429751E-001	2,019336612688176E-002	4,000000000000000E+000
1,9228686E-001	2,008188852818824E-002	4,000000000000000E+000
1,9529112E-001	2,080630645569831E-002	4,000000000000000E+000
1,9831976E-001	2,131556642537663E-002	4,000000000000000E+000
2,0129219E-001	2,166435332805539E-002	4,000000000000000E+000
2,0428152E-001	2,168189667564652E-002	4,000000000000000E+000
2,0728576E-001	2,180353540542353E-002	4,000000000000000E+000
2,1031865E-001	2,189323380662245E-002	4,000000000000000E+000
2,1330591E-001	2,188983709048545E-002	4,000000000000000E+000
2,1629742E-001	2,231852507854155E-002	4,000000000000000E+000
2,1928574E-001	2,245477193759546E-002	4,000000000000000E+000
2,2232392E-001	2,262186061206096E-002	4,000000000000000E+000
2,2527619E-001	2,232977435050998E-002	4,000000000000000E+000
2,2834831E-001	2,269369624627871E-002	4,000000000000000E+000
2,3132074E-001	2,299816452351583E-002	4,000000000000000E+000
2,3431331E-001	2,303279114251688E-002	4,000000000000000E+000
2,3733768E-001	2,333718763515613E-002	4,000000000000000E+000
2,4032602E-001	2,373941950928485E-002	4,000000000000000E+000
2,4330586E-001	2,382950523719451E-002	4,000000000000000E+000
2,4633132E-001	2,421967539137562E-002	4,000000000000000E+000
2,4934193E-001	2,419590546439096E-002	4,000000000000000E+000
2,5232598E-001	2,467673029322115E-002	4,000000000000000E+000
2,5534081E-001	2,458069985126121E-002	4,000000000000000E+000
2,5829735E-001	2,468921479723779E-002	4,000000000000000E+000
2,6129627E-001	2,494140537277819E-002	4,000000000000000E+000
2,6425067E-001	2,466314667657973E-002	4,000000000000000E+000
2,6728562E-001	2,513081171047007E-002	4,000000000000000E+000
2,7027076E-001	2,535930456401223E-002	4,000000000000000E+000
2,7327609E-001	2,550184569069341E-002	4,000000000000000E+000
2,7633017E-001	2,565903018775220E-002	4,000000000000000E+000
2,7927288E-001	2,608439400864876E-002	4,000000000000000E+000
2,8231215E-001	2,639222139300227E-002	4,000000000000000E+000
2,8529832E-001	2,648588178029371E-002	4,000000000000000E+000
2,8829625E-001	2,683120204771212E-002	4,000000000000000E+000
2,9131639E-001	2,749764752499892E-002	4,000000000000000E+000
2,9428029E-001	2,757560324809877E-002	4,000000000000000E+000
2,9726970E-001	2,792541414884103E-002	4,000000000000000E+000
3,0031529E-001	2,798766586501100E-002	4,000000000000000E+000
3,0326223E-001	2,846360854891827E-002	4,000000000000000E+000
3,0630997E-001	2,870352429292539E-002	4,000000000000000E+000
3,0927181E-001	2,888833393282969E-002	4,000000000000000E+000
3,1226432E-001	2,942896683655111E-002	4,000000000000000E+000
3,1528234E-001	2,944467064864709E-002	4,000000000000000E+000
3,1825691E-001	2,999131763176097E-002	4,000000000000000E+000
3,2126749E-001	3,032917502868160E-002	4,000000000000000E+000
3,2427388E-001	3,071184556190720E-002	4,000000000000000E+000
3,2727602E-001	3,083412046705941E-002	4,000000000000000E+000
3,3031309E-001	3,131671253221525E-002	4,000000000000000E+000
3,3328447E-001	3,171313995375791E-002	4,000000000000000E+000
3,3633536E-001	3,221815509217174E-002	4,000000000000000E+000
3,3929086E-001	3,258055797939764E-002	4,000000000000000E+000
3,4227490E-001	3,333058624290663E-002	4,000000000000000E+000
3,4528762E-001	3,374406387067408E-002	4,000000000000000E+000
3,4826005E-001	3,402154232551569E-002	4,000000000000000E+000
3,5127068E-001	3,442069770931599E-002	4,000000000000000E+000
3,5423777E-001	3,466100112402482E-002	4,000000000000000E+000
3,5726848E-001	3,507882928857309E-002	4,000000000000000E+000
3,6025041E-001	3,547469222798494E-002	4,000000000000000E+000
3,6316988E-001	3,593380328311468E-002	4,000000000000000E+000
3,6367914E-001	3,526084870100021E-002	4,000000000000000E+000
3,6066735E-001	3,411122440929330E-003	4,000000000000000E+000
3,5783711E-001	-3,917589202526668E-003	4,000000000000000E+000
3,5492834E-001	-7,809976811990471E-003	4,000000000000000E+000
3,5197073E-001	-9,816671779440674E-003	4,000000000000000E+000
3,4900576E-001	-1,164269573786844E-002	4,000000000000000E+000
3,4600264E-001	-1,259429579800375E-002	4,000000000000000E+000
3,4294531E-001	-1,360956338551961E-002	4,000000000000000E+000
3,3995277E-001	-1,412692374631458E-002	4,000000000000000E+000
3,2942861E-001	-1,555772987592469E-002	4,000000000000000E+000
3,1896022E-001	-1,741708353074495E-002	4,000000000000000E+000
3,1595066E-001	-1,777296414406410E-002	4,000000000000000E+000
3,1298354E-001	-1,807648827788300E-002	4,000000000000000E+000
3,1002495E-001	-1,815679128998859E-002	4,000000000000000E+000
3,0698040E-001	-1,825867257583819E-002	4,000000000000000E+000
3,0397621E-001	-1,831279757122195E-002	4,000000000000000E+000
3,0099636E-001	-1,863471695873564E-002	4,000000000000000E+000
2,9800799E-001	-1,903906180753734E-002	4,000000000000000E+000
2,9502708E-001	-1,929801369078629E-002	4,000000000000000E+000
2,9200700E-001	-1,947418410701280E-002	4,000000000000000E+000
2,8901437E-001	-1,947347682996925E-002	4,000000000000000E+000
2,8603777E-001	-1,968077950793178E-002	4,000000000000000E+000
2,8298789E-001	-1,959552307723950E-002	4,000000000000000E+000
2,7999640E-001	-1,979964227696955E-002	4,000000000000000E+000
2,7698049E-001	-2,007663312057645E-002	4,000000000000000E+000
2,7399743E-001	-2,031541979118227E-002	4,000000000000000E+000
2,5597945E-001	-2,202095852529355E-002	4,000000000000000E+000
2,5300917E-001	-2,162548492722435E-002	4,000000000000000E+000
2,5001019E-001	-2,100884045163787E-002	4,000000000000000E+000
2,4702297E-001	-2,122831123940866E-002	4,000000000000000E+000
2,4400918E-001	-2,132667818417153E-002	4,000000000000000E+000
2,4103783E-001	-2,150968086344718E-002	4,000000000000000E+000
2,3798478E-001	-2,165487736419891E-002	4,000000000000000E+000
2,3501346E-001	-2,206722375760573E-002	4,000000000000000E+000
2,3200814E-001	-2,234784972663162E-002	4,000000000000000E+000
2,2901240E-001	-2,214585049255722E-002	4,000000000000000E+000
2,2603679E-001	-2,215218298078975E-002	4,000000000000000E+000
2,2298163E-001	-2,230434442915591E-002	4,000000000000000E+000
2,1998908E-001	-2,229925149772005E-002	4,000000000000000E+000
2,1704529E-001	-2,250899697699221E-002	4,000000000000000E+000
2,1401455E-001	-2,244264164659804E-002	4,000000000000000E+000
2,1101029E-001	-2,237961210266806E-002	4,000000000000000E+000
2,0802726E-001	-2,275064563541995E-002	4,000000000000000E+000
2,0499016E-001	-2,292834701964047E-002	4,000000000000000E+000
2,0201775E-001	-2,299533875379389E-002	4,000000000000000E+000
1,9899972E-001	-2,267962293020293E-002	4,000000000000000E+000
1,9599973E-001	-2,288547852771849E-002	4,000000000000000E+000
1,9303049E-001	-2,325424724525270E-002	4,000000000000000E+000
1,8994670E-001	-2,349862070089637E-002	4,000000000000000E+000
1,8701355E-001	-2,356985519670862E-002	4,000000000000000E+000
1,8402308E-001	-2,395662998929346E-002	4,000000000000000E+000
1,8101355E-001	-2,380032908614443E-002	4,000000000000000E+000
1,7800188E-001	-2,364958018006291E-002	4,000000000000000E+000
1,7495520E-001	-2,385985716763467E-002	4,000000000000000E+000
1,7200615E-001	-2,413549803168277E-002	4,000000000000000E+000
1,6902524E-001	-2,419785345935255E-002	4,000000000000000E+000
1,6596583E-001	-2,429098395764906E-002	4,000000000000000E+000
1,6301784E-001	-2,442351740238435E-002	4,000000000000000E+000
1,6000299E-001	-2,411218899376558E-002	4,000000000000000E+000
1,5700084E-001	-2,445004448236426E-002	4,000000000000000E+000
1,5402101E-001	-2,436579231572167E-002	4,000000000000000E+000
1,5100724E-001	-2,472066235552317E-002	4,000000000000000E+000
1,4800832E-001	-2,470113786572858E-002	4,000000000000000E+000
1,4500090E-001	-2,481453479534435E-002	4,000000000000000E+000
1,4198391E-001	-2,492287307904917E-002	4,000000000000000E+000
1,3901788E-001	-2,519540157583022E-002	4,000000000000000E+000
1,3597545E-001	-2,540903771902459E-002	4,000000000000000E+000
1,3301896E-001	-2,579206132981604E-002	4,000000000000000E+000
1,3005397E-001	-2,567081074246541E-002	4,000000000000000E+000
1,2699457E-001	-2,573317012380966E-002	4,000000000000000E+000
1,2396487E-001	-2,589951471721484E-002	4,000000000000000E+000
1,2103596E-001	-2,600584034290568E-002	4,000000000000000E+000
1,1801050E-001	-2,601860741803347E-002	4,000000000000000E+000
1,1501686E-001	-2,593237393860659E-002	4,000000000000000E+000
1,1198293E-001	-2,619949170669615E-002	4,000000000000000E+000
1,0903278E-001	-2,578014202016576E-002	4,000000000000000E+000
1,0604765E-001	-2,624801874117108E-002	4,000000000000000E+000
1,0301794E-001	-2,630301917977504E-002	4,000000000000000E+000
1,0000311E-001	-2,638182386726837E-002	4,000000000000000E+000
9,7034931E-002	-2,664076824496286E-002	4,000000000000000E+000
9,4032824E-002	-2,703829458146678E-002	4,000000000000000E+000
9,1024332E-002	-2,713393657985658E-002	4,000000000000000E+000
8,7975539E-002	-2,730813487950295E-002	4,000000000000000E+000
8,5002072E-002	-2,755583315673799E-002	4,000000000000000E+000
8,2011633E-002	-2,792198434043608E-002	4,000000000000000E+000
7,9079516E-002	-2,778149397393768E-002	4,000000000000000E+000
7,5981930E-002	-2,757903687597724E-002	4,000000000000000E+000
7,2990432E-002	-2,772667224578779E-002	4,000000000000000E+000
7,0038170E-002	-2,786291673692182E-002	4,000000000000000E+000
6,7015901E-002	-2,812299374919447E-002	4,000000000000000E+000
6,4148210E-002	-2,800560776657740E-002	4,000000000000000E+000
6,3509919E-002	-2,734870277345181E-002	4,000000000000000E+000
6,6539593E-002	-3,589954813921589E-003	4,000000000000000E+000
6,9405928E-002	3,786754085846654E-003	4,000000000000000E+000
8,7265857E-002	1,369625477733888E-002	4,000000000000000E+000
9,0361327E-002	1,409776941141500E-002	4,000000000000000E+000
9,3313582E-002	1,422972030316792E-002	4,000000000000000E+000
9,6331611E-002	1,447027636499522E-002	4,000000000000000E+000
9,9280678E-002	1,476637054434427E-002	4,000000000000000E+000
1,0232311E-001	1,532177072860784E-002	4,000000000000000E+000
1,0531356E-001	1,564899647423268E-002	4,000000000000000E+000
1,0836341E-001	1,586903273467515E-002	4,000000000000000E+000
1,1132097E-001	1,644565747887505E-002	4,000000000000000E+000
1,1431355E-001	1,647714159783695E-002	4,000000000000000E+000
1,1728383E-001	1,641275768108447E-002	4,000000000000000E+000
1,2033049E-001	1,669187447078002E-002	4,000000000000000E+000
1,2326261E-001	1,705942722502279E-002	4,000000000000000E+000
1,2632094E-001	1,745988150408578E-002	4,000000000000000E+000
1,2929972E-001	1,774960818248572E-002	4,000000000000000E+000
1,3236655E-001	1,784476945997288E-002	4,000000000000000E+000
1,4278747E-001	1,947160815039329E-002	4,000000000000000E+000
1,5329224E-001	1,943652330616409E-002	4,000000000000000E+000
1,5626359E-001	1,954196256540147E-002	4,000000000000000E+000
1,5933466E-001	1,936585279003746E-002	4,000000000000000E+000
1,6228268E-001	1,934509038983373E-002	4,000000000000000E+000
1,6530602E-001	1,960668923169978E-002	4,000000000000000E+000
1,6826783E-001	1,975750720763848E-002	4,000000000000000E+000
1,7129010E-001	1,989442516989781E-002	4,000000000000000E+000
1,7430070E-001	1,960286859038108E-002	4,000000000000000E+000
1,7731023E-001	2,003739315275899E-002	4,000000000000000E+000
1,8027204E-001	2,034606818981244E-002	4,000000000000000E+000
1,8326460E-001	2,046760099215644E-002	4,000000000000000E+000
1,8634628E-001	2,065718419908086E-002	4,000000000000000E+000
1,8930173E-001	2,101293859353370E-002	4,000000000000000E+000
1,9229218E-001	2,105807215048117E-002	4,000000000000000E+000
1,9529641E-001	2,119658201991109E-002	4,000000000000000E+000
1,9830278E-001	2,128865035087479E-002	4,000000000000000E+000
2,0123805E-001	2,175995873080359E-002	4,000000000000000E+000
2,0427833E-001	2,176027733447780E-002	4,000000000000000E+000
2,0733988E-001	2,191866465000203E-002	4,000000000000000E+000
2,1034624E-001	2,207556698057389E-002	4,000000000000000E+000
2,1324652E-001	2,191010710723479E-002	4,000000000000000E+000
2,1630381E-001	2,209282669799812E-002	4,000000000000000E+000
2,1928045E-001	2,239382885454688E-002	4,000000000000000E+000
2,2237486E-001	2,256661179651726E-002	4,000000000000000E+000
2,2531012E-001	2,229634872370911E-002	4,000000000000000E+000
2,2832286E-001	2,270388279996238E-002	4,000000000000000E+000
2,3129103E-001	2,310027800558601E-002	4,000000000000000E+000
2,3434727E-001	2,322492315094371E-002	4,000000000000000E+000
2,3732181E-001	2,353151306953000E-002	4,000000000000000E+000
2,4030691E-001	2,395156865289511E-002	4,000000000000000E+000
2,4333875E-001	2,396331137667104E-002	4,000000000000000E+000
2,4632707E-001	2,411260837511189E-002	4,000000000000000E+000
2,4899295E-001	2,416517257734085E-002	4,000000000000000E+000
2,4943535E-001	2,418544143438339E-002	4,000000000000000E+000