File: fig_4_nife_ceo2/Stability_CP/Fe100_stability_10mA_cm2_2hr_02_CP_C01.txt
time/s	<Ewe/V>	I/mA
1,005239974605502E+001	4,7021741E-001	1,9076359E+000
1,775239955153666E+001	7,1048504E-001	1,9883362E+000
2,545239935701829E+001	7,0941430E-001	1,9953259E+000
3,315239916249993E+001	7,0845586E-001	1,9921488E+000
4,085239896798157E+001	7,0812488E-001	1,9889716E+000
4,855239877346321E+001	7,0838094E-001	1,9946904E+000
5,625239857894485E+001	7,0822442E-001	1,9953259E+000
6,395239838442649E+001	7,0776176E-001	1,9978676E+000
7,165239818990813E+001	7,0809817E-001	1,9934196E+000
7,935239799538977E+001	7,0784414E-001	1,9946904E+000
8,705239780087140E+001	7,0816797E-001	1,9946904E+000
9,475239760635304E+001	7,0787746E-001	1,9889716E+000
1,024523974118347E+002	7,0809728E-001	1,9896070E+000
1,101523972173163E+002	7,0768762E-001	1,9991385E+000
1,178523970227980E+002	7,0747626E-001	1,9927841E+000
1,255523968282796E+002	7,0780098E-001	2,0035865E+000
1,332523966337612E+002	7,0773852E-001	1,9896070E+000
1,409523964392429E+002	7,0784962E-001	1,9940550E+000
1,486523962447245E+002	7,0761567E-001	1,9927841E+000
1,563523960502062E+002	7,0767713E-001	1,9959613E+000
1,640523958556878E+002	7,0798957E-001	1,9953259E+000
1,717523956611694E+002	7,0777953E-001	1,9915133E+000
1,794523954666511E+002	7,0792210E-001	1,9953259E+000
1,871523952721327E+002	7,0782030E-001	1,9978676E+000
1,948523950776143E+002	7,0817089E-001	1,9857944E+000
2,025523948830960E+002	7,0806301E-001	1,9915133E+000
2,102523946885776E+002	7,0792913E-001	1,9959613E+000
2,179523944940593E+002	7,0804864E-001	1,9965969E+000
2,256523942995409E+002	7,0820671E-001	2,0035865E+000
2,333523941050225E+002	7,0842916E-001	2,0004094E+000
2,410523939105042E+002	7,0822155E-001	1,9940550E+000
2,487523937159858E+002	7,0823598E-001	1,9985032E+000
2,564523935214675E+002	7,0809799E-001	1,9838881E+000
2,641523933269491E+002	7,0820719E-001	1,9845235E+000
2,718523931324307E+002	7,0815653E-001	1,9959613E+000
2,795523929379124E+002	7,0838714E-001	1,9877007E+000
2,872523927433940E+002	7,0891112E-001	1,9978676E+000
2,949523925488757E+002	7,0853293E-001	1,9959613E+000
3,026523923543573E+002	7,0869321E-001	1,9991385E+000
3,103523921598389E+002	7,0861596E-001	1,9896070E+000
3,180523919653206E+002	7,0866686E-001	1,9940550E+000
3,257523917708022E+002	7,0852733E-001	1,9908779E+000
3,334523915762838E+002	7,0894784E-001	1,9978676E+000
3,411523913817655E+002	7,0879763E-001	1,9857944E+000
3,488523911872471E+002	7,0858890E-001	1,9915133E+000
3,565523909927288E+002	7,0875293E-001	1,9870653E+000
3,642523907982104E+002	7,0900893E-001	1,9908779E+000
3,719523906036920E+002	7,0905066E-001	1,9972322E+000
3,796523904091737E+002	7,0897925E-001	1,9896070E+000
3,873523902146553E+002	7,0929050E-001	1,9965969E+000
3,950523900201370E+002	7,0909709E-001	1,9985032E+000
4,027523898256186E+002	7,0900196E-001	1,9959613E+000
4,104523896311002E+002	7,0920461E-001	1,9908779E+000
4,181523894365819E+002	7,0893800E-001	1,9826171E+000
4,258523892420635E+002	7,0906895E-001	1,9889716E+000
4,335523890475451E+002	7,0916510E-001	1,9965969E+000
4,412523888530268E+002	7,0901978E-001	1,9997739E+000
4,489523886585084E+002	7,0907474E-001	1,9934196E+000
4,566523884639901E+002	7,0909476E-001	1,9978676E+000
4,643523882694717E+002	7,0904982E-001	1,9934196E+000
4,720523880749533E+002	7,0934141E-001	1,9940550E+000
4,797523878804350E+002	7,0939845E-001	1,9896070E+000
4,874523876859166E+002	7,0962286E-001	1,9959613E+000
4,951523874913983E+002	7,0933092E-001	1,9794401E+000
5,028523872968799E+002	7,0940858E-001	1,9940550E+000
5,105523871023615E+002	7,0963061E-001	1,9940550E+000
5,182523869078432E+002	7,0965296E-001	1,9908779E+000
5,259523867133248E+002	7,0960110E-001	1,9953259E+000
5,336523865188065E+002	7,0950812E-001	1,9959613E+000
5,413523863242881E+002	7,0982307E-001	1,9946904E+000
5,490523861297697E+002	7,0999962E-001	1,9870653E+000
5,567523859352514E+002	7,0995539E-001	1,9915133E+000
5,644523857407330E+002	7,0998883E-001	1,9902425E+000
5,721523855462146E+002	7,0992225E-001	1,9857944E+000
5,798523853516963E+002	7,0996398E-001	1,9934196E+000
5,875523851571779E+002	7,1009481E-001	1,9845235E+000
5,952523849626596E+002	7,0992017E-001	1,9965969E+000
6,029523847681412E+002	7,0996886E-001	1,9965969E+000
6,106523845736228E+002	7,0991206E-001	2,0004094E+000
6,183523843791045E+002	7,1001589E-001	1,9978676E+000
6,260523841845861E+002	7,1018499E-001	1,9883362E+000
6,337523839900678E+002	7,1028262E-001	1,9870653E+000
6,414523837955494E+002	7,1058351E-001	1,9921488E+000
6,491523836010310E+002	7,1044266E-001	1,9927841E+000
6,568523834065127E+002	7,1013927E-001	1,9959613E+000
6,645523832119943E+002	7,1058142E-001	1,9902425E+000
6,722523830174760E+002	7,1031576E-001	1,9877007E+000
6,799523828229576E+002	7,1079397E-001	1,9902425E+000
6,876523826284392E+002	7,1065235E-001	1,9934196E+000
6,953523824339209E+002	7,1075433E-001	1,9883362E+000
7,030523822394025E+002	7,1058935E-001	1,9972322E+000
7,107523820448841E+002	7,1061105E-001	1,9959613E+000
7,184523818503658E+002	7,1038610E-001	1,9927841E+000
7,261523816558474E+002	7,1083647E-001	1,9934196E+000
7,338523814613291E+002	7,1080548E-001	1,9915133E+000
7,415523812668107E+002	7,1093655E-001	2,0035865E+000
7,492523810722923E+002	7,1089059E-001	1,9946904E+000
7,569523808777740E+002	7,1122587E-001	1,9972322E+000
7,646523806832556E+002	7,1067488E-001	1,9915133E+000
7,723523804887373E+002	7,1127331E-001	1,9870653E+000
7,800523802942189E+002	7,1087843E-001	1,9889716E+000
7,877523800997005E+002	7,1121347E-001	1,9959613E+000
7,954523799051822E+002	7,1133238E-001	1,9921488E+000
8,031523797106638E+002	7,1114600E-001	1,9921488E+000
8,108523795161454E+002	7,1123880E-001	1,9959613E+000
8,185523793216271E+002	7,1115583E-001	1,9959613E+000
8,262523791271087E+002	7,1093148E-001	1,9889716E+000
8,339523789325904E+002	7,1135789E-001	1,9883362E+000
8,416523787380720E+002	7,1128786E-001	1,9934196E+000
8,493523785435536E+002	7,1126509E-001	1,9857944E+000
8,570523783490353E+002	7,1144813E-001	1,9965969E+000
8,647523781545169E+002	7,1132392E-001	1,9908779E+000
8,724523779599986E+002	7,1151191E-001	1,9889716E+000
8,801523777654802E+002	7,1150583E-001	1,9965969E+000
8,878523775709618E+002	7,1159005E-001	1,9870653E+000
8,955523773764435E+002	7,1179748E-001	1,9889716E+000
9,032523771819251E+002	7,1178025E-001	1,9934196E+000
9,109523769874068E+002	7,1180636E-001	1,9915133E+000
9,186523767928884E+002	7,1179539E-001	1,9883362E+000
9,263523765983700E+002	7,1199942E-001	1,9877007E+000
9,340523764038517E+002	7,1185356E-001	1,9985032E+000
9,417523762093333E+002	7,1186674E-001	1,9902425E+000
9,494523760148149E+002	7,1184659E-001	1,9997739E+000
9,571523758202966E+002	7,1199608E-001	1,9927841E+000
9,648523756257782E+002	7,1171975E-001	1,9927841E+000
9,725523754312599E+002	7,1194613E-001	1,9908779E+000
9,802523752367415E+002	7,1195328E-001	1,9896070E+000
9,879523750422231E+002	7,1229631E-001	1,9965969E+000
9,956523748477048E+002	7,1194309E-001	1,9902425E+000
1,003352374653186E+003	7,1225786E-001	1,9915133E+000
1,011052374458668E+003	7,1187544E-001	1,9991385E+000
1,018752374264150E+003	7,1214139E-001	1,9934196E+000
1,026452374069631E+003	7,1220100E-001	1,9915133E+000
1,034152373875113E+003	7,1189177E-001	1,9864298E+000
1,041852373680595E+003	7,1215087E-001	1,9915133E+000
1,049552373486076E+003	7,1247089E-001	1,9997739E+000
1,057252373291558E+003	7,1266460E-001	1,9800756E+000
1,064952373097040E+003	7,1266925E-001	1,9851590E+000
1,072652372902521E+003	7,1244061E-001	1,9985032E+000
1,080352372708003E+003	7,1263289E-001	1,9927841E+000
1,088052372513484E+003	7,1243554E-001	1,9896070E+000
1,095752372318966E+003	7,1245980E-001	1,9883362E+000
1,103452372124448E+003	7,1290493E-001	1,9915133E+000
1,111152371929929E+003	7,1286678E-001	1,9851590E+000
1,118852371735411E+003	7,1279401E-001	1,9934196E+000
1,126552371540893E+003	7,1279013E-001	1,9940550E+000
1,134252371346374E+003	7,1260637E-001	1,9896070E+000
1,141952371151856E+003	7,1268570E-001	1,9927841E+000
1,149652370957338E+003	7,1323156E-001	1,9877007E+000
1,157352370762819E+003	7,1296591E-001	1,9877007E+000
1,165052370568301E+003	7,1310240E-001	1,9915133E+000
1,172752370373782E+003	7,1309513E-001	1,9991385E+000
1,180452370179264E+003	7,1302837E-001	1,9934196E+000
1,188152369984746E+003	7,1281189E-001	1,9908779E+000
1,195852369790227E+003	7,1312416E-001	1,9877007E+000
1,203552369595709E+003	7,1307695E-001	1,9921488E+000
1,211252369401191E+003	7,1293443E-001	1,9959613E+000
1,218952369206672E+003	7,1318269E-001	1,9864298E+000
1,226652369012154E+003	7,1289480E-001	1,9889716E+000
1,234352368817636E+003	7,1344906E-001	1,9940550E+000
1,242052368623117E+003	7,1341550E-001	1,9927841E+000
1,249752368428599E+003	7,1348691E-001	1,9896070E+000
1,257452368234081E+003	7,1322286E-001	1,9972322E+000
1,265152368039562E+003	7,1333075E-001	1,9934196E+000
1,272852367845044E+003	7,1342099E-001	1,9972322E+000
1,280552367650525E+003	7,1332383E-001	1,9940550E+000
1,288252367456007E+003	7,1371621E-001	1,9934196E+000
1,295952367261489E+003	7,1373463E-001	1,9953259E+000
1,303652367066970E+003	7,1350992E-001	1,9883362E+000
1,311352366872452E+003	7,1364564E-001	1,9978676E+000
1,319052366677934E+003	7,1343964E-001	1,9877007E+000
1,326752366483415E+003	7,1393818E-001	1,9997739E+000
1,334452366288897E+003	7,1359789E-001	1,9965969E+000
1,342152366094379E+003	7,1347111E-001	1,9972322E+000
1,349852365899860E+003	7,1393424E-001	1,9959613E+000
1,357552365705342E+003	7,1384192E-001	1,9940550E+000
1,365252365510823E+003	7,1396852E-001	1,9927841E+000
1,372952365316305E+003	7,1385986E-001	1,9985032E+000
1,380652365121787E+003	7,1366096E-001	1,9978676E+000
1,388352364927268E+003	7,1415871E-001	1,9940550E+000
1,396052364732750E+003	7,1386617E-001	1,9959613E+000
1,403752364538232E+003	7,1402138E-001	1,9965969E+000
1,411452364343713E+003	7,1416128E-001	1,9896070E+000
1,419152364149195E+003	7,1441823E-001	1,9915133E+000
1,426852363954677E+003	7,1412164E-001	1,9946904E+000
1,434552363760158E+003	7,1414483E-001	1,9959613E+000
1,442252363565640E+003	7,1398127E-001	1,9883362E+000
1,449952363371121E+003	7,1411920E-001	1,9864298E+000
1,457652363176603E+003	7,1452647E-001	1,9883362E+000
1,465352362982085E+003	7,1409369E-001	1,9972322E+000
1,473052362787566E+003	7,1411186E-001	1,9889716E+000
1,480752362593048E+003	7,1459967E-001	1,9927841E+000
1,488452362398530E+003	7,1397138E-001	1,9940550E+000
1,496152362204011E+003	7,1451283E-001	1,9985032E+000
1,503852362009493E+003	7,1463567E-001	1,9889716E+000
1,511552361814975E+003	7,1461266E-001	1,9889716E+000
1,519252361620456E+003	7,1485662E-001	1,9934196E+000
1,526952361425938E+003	7,1469200E-001	1,9953259E+000
1,534652361231419E+003	7,1447897E-001	1,9927841E+000
1,542352361036901E+003	7,1457261E-001	2,0010448E+000
1,550052360842383E+003	7,1436363E-001	1,9946904E+000
1,557752360647864E+003	7,1440762E-001	1,9908779E+000
1,565452360453346E+003	7,1478420E-001	1,9870653E+000
1,573152360258828E+003	7,1467960E-001	1,9915133E+000
1,580852360064309E+003	7,1469134E-001	1,9991385E+000
1,588552359869791E+003	7,1489400E-001	1,9965969E+000
1,596252359675273E+003	7,1446639E-001	1,9902425E+000
1,603952359480754E+003	7,1465397E-001	1,9908779E+000
1,611652359286236E+003	7,1479207E-001	1,9946904E+000
1,619352359091718E+003	7,1477830E-001	1,9896070E+000
1,627052358897199E+003	7,1487021E-001	1,9883362E+000
1,634752358702681E+003	7,1486390E-001	1,9915133E+000
1,642452358508162E+003	7,1497148E-001	1,9908779E+000
1,650152358313644E+003	7,1498078E-001	1,9896070E+000
1,657852358119126E+003	7,1499634E-001	1,9978676E+000
1,665552357924607E+003	7,1516311E-001	1,9927841E+000
1,673252357730089E+003	7,1509558E-001	1,9915133E+000
1,680952357535571E+003	7,1495664E-001	1,9972322E+000
1,688652357341052E+003	7,1492118E-001	1,9972322E+000
1,696352357146534E+003	7,1535516E-001	1,9902425E+000
1,704052356952016E+003	7,1542776E-001	1,9902425E+000
1,711752356757497E+003	7,1540165E-001	1,9883362E+000
1,719452356562979E+003	7,1526366E-001	1,9883362E+000
1,727152356368460E+003	7,1502662E-001	1,9813464E+000
1,734852356173942E+003	7,1530753E-001	1,9870653E+000
1,742552355979424E+003	7,1536398E-001	1,9934196E+000
1,750252355784905E+003	7,1573186E-001	1,9889716E+000
1,757952355590387E+003	7,1515930E-001	1,9877007E+000
1,765652355395869E+003	7,1564156E-001	1,9915133E+000
1,773352355201350E+003	7,1559072E-001	1,9896070E+000
1,781052355006832E+003	7,1562582E-001	1,9972322E+000
1,788752354812314E+003	7,1553242E-001	1,9864298E+000
1,796452354617795E+003	7,1603876E-001	1,9959613E+000
1,804152354423277E+003	7,1557820E-001	1,9915133E+000
1,811852354228758E+003	7,1550173E-001	1,9915133E+000
1,819552354034240E+003	7,1561301E-001	1,9946904E+000
1,827252353839722E+003	7,1589291E-001	1,9883362E+000
1,834952353645203E+003	7,1608514E-001	1,9991385E+000
1,842652353450685E+003	7,1566159E-001	1,9934196E+000
1,850352353256167E+003	7,1600097E-001	1,9883362E+000
1,858052353061648E+003	7,1574271E-001	1,9940550E+000
1,865752352867130E+003	7,1608710E-001	1,9953259E+000
1,873452352672612E+003	7,1595359E-001	1,9902425E+000
1,881152352478093E+003	7,1609747E-001	1,9889716E+000
1,888852352283575E+003	7,1576011E-001	1,9915133E+000
1,896552352089057E+003	7,1583021E-001	1,9870653E+000
1,904252351894538E+003	7,1618903E-001	1,9915133E+000
1,911952351700020E+003	7,1623796E-001	1,9870653E+000
1,919652351505501E+003	7,1615559E-001	1,9972322E+000
1,927352351310983E+003	7,1623361E-001	1,9927841E+000
1,935052351116465E+003	7,1616620E-001	1,9908779E+000
1,942752350921946E+003	7,1607322E-001	1,9927841E+000
1,950452350727428E+003	7,1623081E-001	1,9889716E+000
1,958152350532910E+003	7,1603894E-001	1,9965969E+000
1,965852350338391E+003	7,1640468E-001	1,9940550E+000
1,973552350143873E+003	7,1633995E-001	1,9972322E+000
1,981252349949355E+003	7,1630484E-001	1,9896070E+000
1,988952349754836E+003	7,1628183E-001	1,9857944E+000
1,996652349560318E+003	7,1631515E-001	1,9896070E+000
2,004352349365799E+003	7,1637130E-001	1,9902425E+000
2,012052349171281E+003	7,1649694E-001	1,9921488E+000
2,019752348976763E+003	7,1652561E-001	1,9889716E+000
2,027452348782244E+003	7,1667928E-001	1,9934196E+000
2,035152348587726E+003	7,1660513E-001	1,9908779E+000
2,042852348393208E+003	7,1642762E-001	1,9908779E+000
2,050552348198689E+003	7,1671200E-001	1,9877007E+000
2,058252348004171E+003	7,1663547E-001	1,9927841E+000
2,065952347809653E+003	7,1704429E-001	1,9896070E+000
2,073652347615134E+003	7,1671164E-001	1,9915133E+000
2,081352347420616E+003	7,1648645E-001	1,9934196E+000
2,089052347226097E+003	7,1657860E-001	1,9921488E+000
2,096752347031579E+003	7,1668595E-001	1,9915133E+000
2,104452346837061E+003	7,1675724E-001	1,9940550E+000
2,112152346642542E+003	7,1675503E-001	1,9978676E+000
2,119852346448024E+003	7,1703470E-001	1,9965969E+000
2,127552346253506E+003	7,1678317E-001	1,9940550E+000
2,135252346058987E+003	7,1688712E-001	1,9908779E+000
2,142952345864469E+003	7,1673161E-001	1,9921488E+000
2,150652345669951E+003	7,1656561E-001	1,9877007E+000
2,158352345475432E+003	7,1690065E-001	1,9940550E+000
2,166052345280914E+003	7,1675646E-001	1,9927841E+000
2,173752345086396E+003	7,1703756E-001	1,9864298E+000
2,181452344891877E+003	7,1689385E-001	1,9902425E+000
2,189152344697359E+003	7,1709239E-001	1,9934196E+000
2,196852344502840E+003	7,1710902E-001	1,9921488E+000
2,204552344308322E+003	7,1718657E-001	1,9877007E+000
2,212252344113804E+003	7,1720505E-001	1,9940550E+000
2,219952343919285E+003	7,1707243E-001	1,9851590E+000
2,227652343724767E+003	7,1711874E-001	1,9921488E+000
2,235352343530249E+003	7,1719038E-001	1,9902425E+000
2,243052343335730E+003	7,1728277E-001	1,9915133E+000
2,250752343141212E+003	7,1707726E-001	1,9889716E+000
2,258452342946694E+003	7,1697950E-001	1,9953259E+000
2,266152342752175E+003	7,1728742E-001	1,9877007E+000
2,273852342557657E+003	7,1730673E-001	1,9857944E+000
2,281552342363138E+003	7,1756607E-001	2,0042222E+000
2,289252342168620E+003	7,1720964E-001	1,9883362E+000
2,296952341974102E+003	7,1727026E-001	1,9978676E+000
2,304652341779583E+003	7,1759337E-001	1,9927841E+000
2,312352341585065E+003	7,1739155E-001	1,9908779E+000
2,320052341390547E+003	7,1756053E-001	1,9978676E+000
2,327752341196028E+003	7,1736205E-001	1,9902425E+000
2,335452341001510E+003	7,1766531E-001	1,9927841E+000
2,343152340806992E+003	7,1747327E-001	1,9883362E+000
2,350852340612473E+003	7,1756464E-001	1,9908779E+000
2,358552340417955E+003	7,1772635E-001	1,9896070E+000
2,366252340223436E+003	7,1770471E-001	1,9908779E+000
2,373952340028918E+003	7,1751368E-001	1,9864298E+000
2,381652339834400E+003	7,1795863E-001	1,9877007E+000
2,389352339639881E+003	7,1737081E-001	1,9946904E+000
2,397052339445363E+003	7,1765387E-001	1,9921488E+000
2,404752339250845E+003	7,1778017E-001	1,9940550E+000
2,412452339056326E+003	7,1773964E-001	1,9959613E+000
2,420152338861808E+003	7,1796960E-001	1,9959613E+000
2,427852338667290E+003	7,1819204E-001	1,9927841E+000
2,435552338472771E+003	7,1799344E-001	1,9915133E+000
2,443252338278253E+003	7,1785879E-001	2,0010448E+000
2,450952338083735E+003	7,1794462E-001	1,9934196E+000
2,458652337889216E+003	7,1797389E-001	1,9921488E+000
2,466352337694698E+003	7,1802384E-001	1,9946904E+000
2,474052337500179E+003	7,1814102E-001	1,9877007E+000
2,481752337305661E+003	7,1791404E-001	1,9877007E+000
2,489452337111143E+003	7,1837831E-001	1,9946904E+000
2,497152336916624E+003	7,1808553E-001	2,0004094E+000
2,504852336722106E+003	7,1814233E-001	1,9921488E+000
2,512552336527588E+003	7,1813482E-001	1,9940550E+000
2,520252336333069E+003	7,1819836E-001	1,9953259E+000
2,527952336138551E+003	7,1823722E-001	1,9953259E+000
2,535652335944033E+003	7,1812367E-001	1,9883362E+000
2,543352335749514E+003	7,1830761E-001	1,9921488E+000
2,551052335554996E+003	7,1815103E-001	1,9959613E+000
2,558752335360477E+003	7,1818227E-001	1,9902425E+000
2,566452335165959E+003	7,1837789E-001	1,9946904E+000
2,574152334971441E+003	7,1831656E-001	1,9889716E+000
2,581852334776922E+003	7,1811408E-001	1,9927841E+000
2,589552334582404E+003	7,1806240E-001	1,9857944E+000
2,597252334387886E+003	7,1814984E-001	1,9889716E+000
2,604952334193367E+003	7,1868211E-001	1,9985032E+000
2,612652333998849E+003	7,1840829E-001	1,9934196E+000
2,620352333804331E+003	7,1859872E-001	1,9877007E+000
2,628052333609812E+003	7,1867079E-001	1,9934196E+000
2,635752333415294E+003	7,1833473E-001	1,9902425E+000
2,643452333220775E+003	7,1870410E-001	1,9959613E+000
2,651152333026257E+003	7,1860343E-001	1,9908779E+000
2,658852332831739E+003	7,1867341E-001	1,9940550E+000
2,666552332637220E+003	7,1862656E-001	1,9946904E+000
2,674252332442702E+003	7,1877074E-001	1,9902425E+000
2,681952332248184E+003	7,1878111E-001	1,9927841E+000
2,689652332053665E+003	7,1888661E-001	1,9991385E+000
2,697352331859147E+003	7,1856451E-001	1,9883362E+000
2,705052331664629E+003	7,1877563E-001	1,9889716E+000
2,712752331470110E+003	7,1869677E-001	1,9889716E+000
2,720452331275592E+003	7,1872580E-001	1,9921488E+000
2,728152331081074E+003	7,1879160E-001	1,9927841E+000
2,735852330886555E+003	7,1902114E-001	1,9902425E+000
2,743552330692037E+003	7,1886206E-001	1,9845235E+000
2,751252330497518E+003	7,1909267E-001	1,9965969E+000
2,758952330303000E+003	7,1915436E-001	1,9851590E+000
2,766652330108482E+003	7,1900868E-001	1,9864298E+000
2,774352329913963E+003	7,1883011E-001	1,9915133E+000
2,782052329719445E+003	7,1849418E-001	1,9902425E+000
2,789752329524927E+003	7,1936476E-001	1,9915133E+000
2,797452329330408E+003	7,1923250E-001	1,9864298E+000
2,805152329135890E+003	7,1902633E-001	1,9877007E+000
2,812852328941372E+003	7,1915549E-001	1,9896070E+000
2,820552328746853E+003	7,1913290E-001	1,9972322E+000
2,828252328552335E+003	7,1899253E-001	1,9972322E+000
2,835952328357816E+003	7,1914512E-001	1,9953259E+000
2,843652328163298E+003	7,1932507E-001	1,9889716E+000
2,851352327968780E+003	7,1935403E-001	1,9896070E+000
2,859052327774261E+003	7,1926099E-001	1,9915133E+000
2,866752327579743E+003	7,1926576E-001	1,9908779E+000
2,874452327385225E+003	7,1952099E-001	1,9972322E+000
2,882152327190706E+003	7,1913886E-001	1,9908779E+000
2,889852326996188E+003	7,1903425E-001	1,9934196E+000
2,897552326801670E+003	7,1935058E-001	1,9940550E+000
2,905252326607151E+003	7,1914524E-001	1,9921488E+000
2,912952326412633E+003	7,1954930E-001	1,9902425E+000
2,920652326218114E+003	7,1968174E-001	1,9845235E+000
2,928352326023596E+003	7,1943343E-001	1,9927841E+000
2,936052325829078E+003	7,1968377E-001	1,9972322E+000
2,943752325634559E+003	7,1953773E-001	1,9953259E+000
2,951452325440041E+003	7,1956199E-001	1,9946904E+000
2,959152325245523E+003	7,1949834E-001	1,9972322E+000
2,966852325051004E+003	7,1965623E-001	1,9978676E+000
2,974552324856486E+003	7,1970314E-001	1,9883362E+000
2,982252324661968E+003	7,1939623E-001	1,9946904E+000
2,989952324467449E+003	7,1934819E-001	1,9896070E+000
2,997652324272931E+003	7,1971256E-001	1,9940550E+000
3,005352324078412E+003	7,1963030E-001	1,9915133E+000
3,013052323883894E+003	7,1982676E-001	1,9883362E+000
3,020752323689376E+003	7,1975690E-001	1,9972322E+000
3,028452323494857E+003	7,1977252E-001	1,9826171E+000
3,036152323300339E+003	7,1997625E-001	1,9940550E+000
3,043852323105821E+003	7,1990085E-001	1,9896070E+000
3,051552322911302E+003	7,1985757E-001	1,9953259E+000
3,059252322716784E+003	7,1981275E-001	1,9896070E+000
3,066952322522266E+003	7,2010100E-001	1,9889716E+000
3,074652322327747E+003	7,1983558E-001	1,9940550E+000
3,082352322133229E+003	7,1982366E-001	1,9889716E+000
3,090052321938711E+003	7,1986824E-001	1,9902425E+000
3,097752321744192E+003	7,2008455E-001	1,9902425E+000
3,105452321549674E+003	7,1990401E-001	1,9889716E+000
3,113152321355155E+003	7,1951413E-001	1,9877007E+000
3,120852321160637E+003	7,2007650E-001	1,9851590E+000
3,128552320966119E+003	7,1990269E-001	1,9877007E+000
3,136252320771600E+003	7,1969885E-001	1,9959613E+000
3,143952320577082E+003	7,1997952E-001	1,9940550E+000
3,151652320382564E+003	7,2022557E-001	1,9953259E+000
3,159352320188045E+003	7,2008240E-001	1,9985032E+000
3,167052319993527E+003	7,2011358E-001	1,9851590E+000
3,174752319799009E+003	7,2044200E-001	1,9978676E+000
3,182452319604490E+003	7,2042507E-001	1,9940550E+000
3,190152319409972E+003	7,1995097E-001	1,9896070E+000
3,197852319215453E+003	7,2051209E-001	1,9965969E+000
3,205552319020935E+003	7,2025889E-001	1,9883362E+000
3,213252318826417E+003	7,2028595E-001	1,9870653E+000
3,220952318631898E+003	7,2052389E-001	1,9959613E+000
3,228652318437380E+003	7,2013295E-001	1,9915133E+000
3,236352318242862E+003	7,2042829E-001	1,9896070E+000
3,244052318048343E+003	7,2067857E-001	1,9877007E+000
3,251752317853825E+003	7,2022653E-001	1,9908779E+000
3,259452317659307E+003	7,2043771E-001	1,9959613E+000
3,267152317464788E+003	7,2019684E-001	1,9953259E+000
3,274852317270270E+003	7,2093934E-001	1,9889716E+000
3,282552317075751E+003	7,2063965E-001	1,9908779E+000
3,290252316881233E+003	7,2084200E-001	1,9934196E+000
3,297952316686715E+003	7,2053283E-001	1,9915133E+000
3,305652316492196E+003	7,2094530E-001	1,9877007E+000
3,313352316297678E+003	7,2080672E-001	1,9896070E+000
3,321052316103160E+003	7,2045678E-001	1,9985032E+000
3,328752315908641E+003	7,2082490E-001	1,9864298E+000
3,336452315714123E+003	7,2080427E-001	1,9946904E+000
3,344152315519605E+003	7,2085637E-001	1,9889716E+000
3,351852315325086E+003	7,2074986E-001	1,9965969E+000
3,359552315130568E+003	7,2072077E-001	1,9953259E+000
3,367252314936050E+003	7,2091991E-001	1,9972322E+000
3,374952314741531E+003	7,2084922E-001	1,9851590E+000
3,382652314547013E+003	7,2048408E-001	1,9870653E+000
3,390352314352494E+003	7,2077721E-001	1,9915133E+000
3,398052314157976E+003	7,2078300E-001	1,9915133E+000
3,405752313963458E+003	7,2110784E-001	1,9978676E+000
3,413452313768939E+003	7,2105187E-001	1,9985032E+000
3,421152313574421E+003	7,2100270E-001	1,9819819E+000
3,428852313379903E+003	7,2110200E-001	1,9946904E+000
3,436552313185384E+003	7,2117108E-001	1,9921488E+000
3,444252312990866E+003	7,2120547E-001	1,9864298E+000
3,451952312796348E+003	7,2118449E-001	1,9889716E+000
3,459652312601829E+003	7,2113699E-001	1,9851590E+000
3,467352312407311E+003	7,2110510E-001	1,9965969E+000
3,475052312212792E+003	7,2129208E-001	1,9953259E+000
3,482752312018274E+003	7,2143984E-001	1,9934196E+000
3,490452311823756E+003	7,2119874E-001	1,9934196E+000
3,498152311629237E+003	7,2099543E-001	1,9845235E+000
3,505852311434719E+003	7,2112674E-001	1,9902425E+000
3,513552311240201E+003	7,2132087E-001	1,9902425E+000
3,521252311045682E+003	7,2130829E-001	1,9870653E+000
3,528952310851164E+003	7,2090018E-001	1,9908779E+000
3,536652310656646E+003	7,2135293E-001	1,9877007E+000
3,544352310462127E+003	7,2159028E-001	1,9927841E+000
3,552052310267609E+003	7,2131211E-001	1,9915133E+000
3,559752310073090E+003	7,2138202E-001	1,9908779E+000
3,567452309878572E+003	7,2150683E-001	1,9940550E+000
3,575152309684054E+003	7,2147822E-001	1,9953259E+000
3,582852309489535E+003	7,2169894E-001	1,9978676E+000
3,590552309295017E+003	7,2147328E-001	1,9896070E+000
3,598252309100499E+003	7,2138631E-001	1,9965969E+000
3,605952308905980E+003	7,2166634E-001	1,9857944E+000
3,613652308711462E+003	7,2161055E-001	2,0023158E+000
3,621352308516944E+003	7,2183043E-001	1,9985032E+000
3,629052308322425E+003	7,2130221E-001	2,0010448E+000
3,636752308127907E+003	7,2183216E-001	2,0023158E+000
3,644452307933389E+003	7,2178340E-001	1,9927841E+000
3,652152307738870E+003	7,2152251E-001	1,9953259E+000
3,659852307544352E+003	7,2206211E-001	1,9896070E+000
3,667552307349833E+003	7,2177243E-001	1,9959613E+000
3,675252307155315E+003	7,2167540E-001	1,9946904E+000
3,682952306960797E+003	7,2177881E-001	1,9927841E+000
3,690652306766278E+003	7,2167921E-001	1,9864298E+000
3,698352306571760E+003	7,2185582E-001	2,0042222E+000
3,706052306377242E+003	7,2176552E-001	1,9953259E+000
3,713752306182723E+003	7,2200447E-001	1,9921488E+000
3,721452305988205E+003	7,2184908E-001	1,9921488E+000
3,729152305793687E+003	7,2219759E-001	1,9940550E+000
3,736852305599168E+003	7,2199339E-001	1,9946904E+000
3,744552305404650E+003	7,2196114E-001	1,9940550E+000
3,752252305210131E+003	7,2198981E-001	1,9908779E+000
3,759952305015613E+003	7,2197664E-001	1,9953259E+000
3,767652304821095E+003	7,2170764E-001	1,9965969E+000
3,775352304626576E+003	7,2180682E-001	1,9934196E+000
3,783052304432058E+003	7,2254056E-001	1,9940550E+000
3,790752304237540E+003	7,2216964E-001	1,9921488E+000
3,798452304043021E+003	7,2198856E-001	1,9965969E+000
3,806152303848503E+003	7,2213775E-001	1,9927841E+000
3,813852303653985E+003	7,2223336E-001	1,9946904E+000
3,821552303459466E+003	7,2206134E-001	1,9934196E+000
3,829252303264948E+003	7,2214675E-001	2,0016801E+000
3,836952303070429E+003	7,2190475E-001	1,9902425E+000
3,844652302875911E+003	7,2202653E-001	1,9864298E+000
3,852352302681393E+003	7,2236222E-001	1,9965969E+000
3,860052302486874E+003	7,2200924E-001	1,9965969E+000
3,867752302292356E+003	7,2198766E-001	1,9921488E+000
3,875452302097838E+003	7,2191578E-001	1,9883362E+000
3,883152301903319E+003	7,2248387E-001	1,9915133E+000
3,890852301708801E+003	7,2205579E-001	1,9908779E+000
3,898552301514283E+003	7,2236103E-001	1,9870653E+000
3,906252301319764E+003	7,2205675E-001	1,9908779E+000
3,913952301125246E+003	7,2224402E-001	1,9940550E+000
3,921652300930728E+003	7,2247839E-001	1,9896070E+000
3,929352300736209E+003	7,2243798E-001	1,9965969E+000
3,937052300541691E+003	7,2240293E-001	1,9870653E+000
3,944752300347172E+003	7,2254783E-001	1,9883362E+000
3,952452300152654E+003	7,2227764E-001	2,0035865E+000
3,960152299958136E+003	7,2265345E-001	1,9857944E+000
3,967852299763617E+003	7,2253489E-001	1,9921488E+000
3,975552299569099E+003	7,2272968E-001	1,9921488E+000
3,983252299374581E+003	7,2254533E-001	1,9965969E+000
3,990952299180062E+003	7,2264272E-001	1,9883362E+000
3,998652298985544E+003	7,2271287E-001	1,9921488E+000
4,006352298791026E+003	7,2265828E-001	1,9978676E+000
4,014052298596507E+003	7,2258383E-001	1,9889716E+000
4,021752298401989E+003	7,2230273E-001	1,9883362E+000
4,029452298207470E+003	7,2282326E-001	1,9870653E+000
4,037152298012952E+003	7,2284245E-001	1,9857944E+000
4,044852297818434E+003	7,2285426E-001	1,9953259E+000
4,052552297623915E+003	7,2263074E-001	1,9870653E+000
4,060252297429397E+003	7,2274482E-001	1,9972322E+000
4,067952297234879E+003	7,2298706E-001	1,9870653E+000
4,075652297040360E+003	7,2259772E-001	1,9927841E+000
4,083352296845842E+003	7,2299355E-001	1,9991385E+000
4,091052296651324E+003	7,2278982E-001	1,9991385E+000
4,098752296493010E+003	7,2292882E-001	1,9915133E+000
4,106452296399788E+003	7,2292453E-001	1,9889716E+000
4,114152296306565E+003	7,2292119E-001	1,9889716E+000
4,121852296213328E+003	7,2305441E-001	1,9965969E+000
4,129552296120106E+003	7,2307467E-001	1,9915133E+000
4,137252296026883E+003	7,2283387E-001	1,9870653E+000
4,144952295933661E+003	7,2324502E-001	1,9946904E+000
4,152652295840438E+003	7,2329766E-001	1,9908779E+000
4,160352295747201E+003	7,2291946E-001	1,9934196E+000
4,168052295653979E+003	7,2305822E-001	1,9972322E+000
4,175752295560756E+003	7,2296739E-001	1,9870653E+000
4,183452295467534E+003	7,2341251E-001	1,9883362E+000
4,191152295374312E+003	7,2331160E-001	1,9959613E+000
4,198852295281074E+003	7,2277927E-001	1,9978676E+000
4,206552295187852E+003	7,2334921E-001	1,9921488E+000
4,214252295094630E+003	7,2314912E-001	1,9908779E+000
4,221952295001407E+003	7,2318894E-001	1,9838881E+000
4,229652294908185E+003	7,2335452E-001	2,0016801E+000
4,237352294814948E+003	7,2325379E-001	1,9934196E+000
4,245052294721725E+003	7,2332817E-001	1,9896070E+000
4,252752294628503E+003	7,2341448E-001	1,9927841E+000
4,260452294535280E+003	7,2333390E-001	1,9889716E+000
4,268152294442058E+003	7,2310001E-001	1,9991385E+000
4,275852294348821E+003	7,2355330E-001	1,9877007E+000
4,283552294255598E+003	7,2375780E-001	1,9902425E+000
4,291252294162376E+003	7,2352898E-001	1,9921488E+000
4,298952294069153E+003	7,2349650E-001	1,9965969E+000
4,306652293975931E+003	7,2345239E-001	1,9870653E+000
4,314352293882694E+003	7,2335583E-001	1,9965969E+000
4,322052293789471E+003	7,2353590E-001	1,9953259E+000
4,329752293696249E+003	7,2355157E-001	1,9877007E+000
4,337452293603026E+003	7,2371709E-001	1,9997739E+000
4,345152293509804E+003	7,2372019E-001	1,9908779E+000
4,352852293416567E+003	7,2366911E-001	1,9972322E+000
4,360552293323344E+003	7,2361177E-001	1,9902425E+000
4,368252293230122E+003	7,2377646E-001	1,9978676E+000
4,375952293136899E+003	7,2376460E-001	1,9965969E+000
4,383652293043677E+003	7,2362900E-001	1,9915133E+000
4,391352292950440E+003	7,2404200E-001	1,9883362E+000
4,399052292857217E+003	7,2379392E-001	1,9985032E+000
4,406752292763995E+003	7,2345603E-001	1,9927841E+000
4,414452292670772E+003	7,2395980E-001	1,9889716E+000
4,422152292577550E+003	7,2409576E-001	1,9915133E+000
4,429852292484313E+003	7,2390443E-001	1,9934196E+000
4,437552292391090E+003	7,2385901E-001	1,9838881E+000
4,445252292297868E+003	7,2362989E-001	1,9921488E+000
4,452952292204645E+003	7,2396034E-001	1,9896070E+000
4,460652292111423E+003	7,2395670E-001	1,9985032E+000
4,468352292018186E+003	7,2410119E-001	1,9927841E+000
4,476052291924963E+003	7,2429693E-001	1,9934196E+000
4,483752291831741E+003	7,2386736E-001	1,9985032E+000
4,491452291738518E+003	7,2402185E-001	1,9940550E+000
4,499152291645296E+003	7,2401035E-001	1,9927841E+000
4,506852291552059E+003	7,2392207E-001	1,9934196E+000
4,514552291458836E+003	7,2428858E-001	1,9940550E+000
4,522252291365614E+003	7,2422022E-001	1,9934196E+000
4,529952291272391E+003	7,2390109E-001	1,9953259E+000
4,537652291179169E+003	7,2440475E-001	1,9902425E+000
4,545352291085932E+003	7,2419924E-001	1,9940550E+000
4,553052290992709E+003	7,2387964E-001	1,9946904E+000
4,560752290899487E+003	7,2413987E-001	1,9819819E+000
4,568452290806265E+003	7,2452009E-001	1,9851590E+000
4,576152290713042E+003	7,2440040E-001	1,9927841E+000
4,583852290619805E+003	7,2444826E-001	1,9915133E+000
4,591552290526583E+003	7,2411531E-001	1,9959613E+000
4,599252290433360E+003	7,2442096E-001	1,9915133E+000
4,606952290340138E+003	7,2437793E-001	1,9826171E+000
4,614652290246915E+003	7,2452003E-001	1,9927841E+000
4,622352290153678E+003	7,2414780E-001	1,9934196E+000
4,630052290060456E+003	7,2425067E-001	1,9915133E+000
4,637752289967233E+003	7,2436011E-001	1,9965969E+000
4,645452289874011E+003	7,2462642E-001	1,9819819E+000
4,653152289780788E+003	7,2453868E-001	1,9857944E+000
4,660852289687551E+003	7,2465611E-001	1,9978676E+000
4,668552289594329E+003	7,2451925E-001	1,9965969E+000
4,676252289501106E+003	7,2461605E-001	1,9972322E+000
4,683952289407884E+003	7,2475439E-001	1,9927841E+000
4,691652289314661E+003	7,2442865E-001	1,9953259E+000
4,699352289221424E+003	7,2430861E-001	1,9838881E+000
4,707052289128202E+003	7,2460634E-001	1,9896070E+000
4,714752289034979E+003	7,2463524E-001	1,9921488E+000
4,722452288941757E+003	7,2462112E-001	1,9946904E+000
4,730152288848534E+003	7,2479337E-001	1,9883362E+000
4,737852288755297E+003	7,2484851E-001	1,9902425E+000
4,745552288662075E+003	7,2452271E-001	1,9889716E+000
4,753252288568852E+003	7,2433317E-001	1,9845235E+000
4,760952288475630E+003	7,2449780E-001	1,9953259E+000
4,768652288382407E+003	7,2455281E-001	1,9845235E+000
4,776352288289170E+003	7,2477788E-001	1,9864298E+000
4,784052288195948E+003	7,2480720E-001	1,9857944E+000
4,791752288102725E+003	7,2474211E-001	1,9959613E+000
4,799452288009503E+003	7,2465235E-001	1,9978676E+000
4,807152287916280E+003	7,2508878E-001	1,9978676E+000
4,814852287823043E+003	7,2499394E-001	1,9927841E+000
4,822552287729821E+003	7,2481799E-001	1,9921488E+000
4,830252287636598E+003	7,2456449E-001	1,9883362E+000
4,837952287543376E+003	7,2490060E-001	1,9908779E+000
4,845652287450153E+003	7,2485399E-001	1,9946904E+000
4,853352287356916E+003	7,2472280E-001	1,9883362E+000
4,861052287263694E+003	7,2503912E-001	1,9934196E+000
4,868752287170471E+003	7,2466081E-001	1,9889716E+000
4,876452287077249E+003	7,2458410E-001	1,9978676E+000
4,884152286984026E+003	7,2495270E-001	1,9946904E+000
4,891852286890789E+003	7,2495037E-001	1,9915133E+000
4,899552286797567E+003	7,2541833E-001	1,9953259E+000
4,907252286704344E+003	7,2479779E-001	2,0054927E+000
4,914952286611122E+003	7,2505915E-001	1,9870653E+000
4,922652286517899E+003	7,2518510E-001	1,9807107E+000
4,930352286424662E+003	7,2507870E-001	1,9934196E+000
4,938052286331440E+003	7,2486389E-001	1,9877007E+000
4,945752286238217E+003	7,2505748E-001	1,9953259E+000
4,953452286144995E+003	7,2500342E-001	1,9870653E+000
4,961152286051773E+003	7,2517651E-001	1,9845235E+000
4,968852285958536E+003	7,2480869E-001	1,9953259E+000
4,976552285865313E+003	7,2523957E-001	1,9965969E+000
4,984252285772091E+003	7,2514838E-001	1,9965969E+000
4,991952285678868E+003	7,2508138E-001	1,9851590E+000
4,999652285585646E+003	7,2506738E-001	1,9927841E+000
5,007352285492409E+003	7,2517377E-001	1,9883362E+000
5,015052285399186E+003	7,2511423E-001	1,9940550E+000
5,022752285305964E+003	7,2548008E-001	1,9934196E+000
5,030452285212741E+003	7,2513121E-001	1,9978676E+000
5,038152285119519E+003	7,2527385E-001	1,9972322E+000
5,045852285026282E+003	7,2532982E-001	1,9902425E+000
5,053552284933059E+003	7,2511256E-001	1,9902425E+000
5,061252284839837E+003	7,2549129E-001	1,9978676E+000
5,068952284746614E+003	7,2528785E-001	1,9927841E+000
5,076652284653392E+003	7,2543406E-001	1,9934196E+000
5,084352284560155E+003	7,2522050E-001	1,9978676E+000
5,092052284466932E+003	7,2563392E-001	1,9940550E+000
5,099752284373710E+003	7,2555059E-001	1,9927841E+000
5,107452284280487E+003	7,2553897E-001	1,9908779E+000
5,115152284187265E+003	7,2540003E-001	1,9972322E+000
5,122852284094028E+003	7,2546613E-001	1,9946904E+000
5,130552284000805E+003	7,2586769E-001	1,9927841E+000
5,138252283907583E+003	7,2510463E-001	1,9908779E+000
5,145952283814360E+003	7,2558945E-001	1,9902425E+000
5,153652283721138E+003	7,2559667E-001	1,9908779E+000
5,161352283627901E+003	7,2548461E-001	1,9915133E+000
5,169052283534678E+003	7,2565502E-001	1,9978676E+000
5,176752283441456E+003	7,2587514E-001	1,9883362E+000
5,184452283348233E+003	7,2544348E-001	1,9819819E+000
5,192152283255011E+003	7,2575676E-001	1,9915133E+000
5,199852283161774E+003	7,2570723E-001	1,9997739E+000
5,207552283068551E+003	7,2548288E-001	1,9902425E+000
5,215252282975329E+003	7,2575355E-001	1,9902425E+000
5,222952282882106E+003	7,2567666E-001	1,9908779E+000
5,230652282788884E+003	7,2580951E-001	1,9902425E+000
5,238352282695647E+003	7,2577339E-001	1,9972322E+000
5,246052282602424E+003	7,2558165E-001	1,9953259E+000
5,253752282509202E+003	7,2582316E-001	1,9883362E+000
5,261452282415979E+003	7,2578579E-001	1,9953259E+000
5,269152282322757E+003	7,2593999E-001	1,9915133E+000
5,276852282229520E+003	7,2627378E-001	1,9908779E+000
5,284552282136297E+003	7,2569263E-001	1,9896070E+000
5,292252282043075E+003	7,2593945E-001	1,9883362E+000
5,299952281949852E+003	7,2584891E-001	1,9807107E+000
5,307652281856630E+003	7,2594231E-001	1,9965969E+000
5,315352281763393E+003	7,2601628E-001	1,9940550E+000
5,323052281670170E+003	7,2601336E-001	1,9940550E+000
5,330752281576948E+003	7,2617155E-001	1,9870653E+000
5,338452281483726E+003	7,2601342E-001	1,9927841E+000
5,346152281390503E+003	7,2609007E-001	1,9902425E+000
5,353852281297266E+003	7,2597122E-001	1,9965969E+000
5,361552281204044E+003	7,2619963E-001	1,9896070E+000
5,369252281110821E+003	7,2595584E-001	1,9908779E+000
5,376952281017599E+003	7,2580028E-001	1,9838881E+000
5,384652280924376E+003	7,2613573E-001	1,9965969E+000
5,392352280831139E+003	7,2619802E-001	2,0004094E+000
5,400052280737917E+003	7,2631192E-001	1,9978676E+000
5,407752280644694E+003	7,2622734E-001	1,9908779E+000
5,415452280551472E+003	7,2632235E-001	1,9857944E+000
5,423152280458249E+003	7,2649288E-001	1,9877007E+000
5,430852280365012E+003	7,2642821E-001	1,9934196E+000
5,438552280271790E+003	7,2614855E-001	1,9877007E+000
5,446252280178567E+003	7,2661489E-001	1,9985032E+000
5,453952280085345E+003	7,2611880E-001	1,9921488E+000
5,461652279992122E+003	7,2634095E-001	1,9877007E+000
5,469352279898885E+003	7,2640538E-001	1,9889716E+000
5,477052279805663E+003	7,2658676E-001	1,9902425E+000
5,484752279712440E+003	7,2655040E-001	1,9921488E+000
5,492452279619218E+003	7,2628158E-001	1,9877007E+000
5,500152279525995E+003	7,2625875E-001	2,0004094E+000
5,507852279432758E+003	7,2642839E-001	1,9864298E+000
5,515552279339536E+003	7,2662020E-001	1,9946904E+000
5,523252279246313E+003	7,2660059E-001	1,9965969E+000
5,530952279153091E+003	7,2660512E-001	1,9883362E+000
5,538652279059868E+003	7,2689635E-001	1,9915133E+000
5,546352278966631E+003	7,2682357E-001	1,9921488E+000
5,554052278873409E+003	7,2640324E-001	1,9915133E+000
5,561752278780186E+003	7,2697568E-001	1,9940550E+000
5,569452278686964E+003	7,2709227E-001	1,9953259E+000
5,577152278593741E+003	7,2659212E-001	1,9946904E+000
5,584852278500504E+003	7,2652823E-001	1,9908779E+000
5,592552278407282E+003	7,2667128E-001	1,9896070E+000
5,600252278314059E+003	7,2691536E-001	1,9896070E+000
5,607952278220837E+003	7,2675449E-001	1,9934196E+000
5,615652278127614E+003	7,2655892E-001	1,9978676E+000
5,623352278034377E+003	7,2671914E-001	1,9883362E+000
5,631052277941155E+003	7,2688490E-001	1,9908779E+000
5,638752277847932E+003	7,2682989E-001	1,9940550E+000
5,646452277754710E+003	7,2700542E-001	1,9946904E+000
5,654152277661487E+003	7,2687906E-001	1,9946904E+000
5,661852277568250E+003	7,2654527E-001	1,9946904E+000
5,669552277475028E+003	7,2692204E-001	1,9908779E+000
5,677252277381805E+003	7,2682512E-001	1,9985032E+000
5,684952277288583E+003	7,2735971E-001	1,9877007E+000
5,692652277195361E+003	7,2694206E-001	1,9965969E+000
5,700352277102123E+003	7,2703028E-001	1,9927841E+000
5,708052277008901E+003	7,2706652E-001	1,9870653E+000
5,715752276915679E+003	7,2685963E-001	1,9934196E+000
5,723452276822456E+003	7,2713494E-001	1,9985032E+000
5,731152276729234E+003	7,2715062E-001	1,9915133E+000
5,738852276635997E+003	7,2717315E-001	1,9896070E+000
5,746552276542774E+003	7,2721899E-001	1,9857944E+000
5,754252276449552E+003	7,2709525E-001	1,9940550E+000
5,761952276356329E+003	7,2701848E-001	1,9877007E+000
5,769652276263107E+003	7,2732997E-001	1,9927841E+000
5,777352276169870E+003	7,2716612E-001	1,9959613E+000
5,785052276076647E+003	7,2697073E-001	1,9934196E+000
5,792752275983425E+003	7,2737789E-001	1,9902425E+000
5,800452275890202E+003	7,2734523E-001	1,9978676E+000
5,808152275796980E+003	7,2707140E-001	1,9946904E+000
5,815852275703743E+003	7,2736198E-001	1,9864298E+000
5,823552275610520E+003	7,2688788E-001	1,9934196E+000
5,831252275517298E+003	7,2729188E-001	1,9934196E+000
5,838952275424075E+003	7,2719699E-001	1,9915133E+000
5,846652275330853E+003	7,2747922E-001	1,9908779E+000
5,854352275237616E+003	7,2728044E-001	1,9978676E+000
5,862052275144393E+003	7,2754943E-001	2,0010448E+000
5,869752275051171E+003	7,2736961E-001	1,9845235E+000
5,877452274957948E+003	7,2747314E-001	1,9851590E+000
5,885152274864726E+003	7,2738940E-001	1,9832528E+000
5,892852274771489E+003	7,2733188E-001	1,9883362E+000
5,900552274678266E+003	7,2768980E-001	1,9870653E+000
5,908252274585044E+003	7,2742903E-001	1,9965969E+000
5,915952274491821E+003	7,2747618E-001	1,9965969E+000
5,923652274398599E+003	7,2755545E-001	1,9915133E+000
5,931352274305362E+003	7,2770226E-001	1,9953259E+000
5,939052274212139E+003	7,2754681E-001	1,9864298E+000
5,946752274118917E+003	7,2740924E-001	1,9959613E+000
5,954452274025694E+003	7,2751486E-001	1,9927841E+000
5,962152273932472E+003	7,2732925E-001	1,9915133E+000
5,969852273839235E+003	7,2753495E-001	1,9915133E+000
5,977552273746012E+003	7,2771412E-001	1,9921488E+000
5,985252273652790E+003	7,2744542E-001	1,9997739E+000
5,992952273559567E+003	7,2795457E-001	2,0010448E+000
6,000652273466345E+003	7,2795409E-001	1,9927841E+000
6,008352273373108E+003	7,2776538E-001	1,9902425E+000
6,016052273279885E+003	7,2795045E-001	1,9991385E+000
6,023752273186663E+003	7,2782481E-001	1,9921488E+000
6,031452273093440E+003	7,2785443E-001	1,9838881E+000
6,039152273000218E+003	7,2809267E-001	1,9889716E+000
6,046852272906981E+003	7,2781307E-001	1,9908779E+000
6,054552272813758E+003	7,2789717E-001	1,9985032E+000
6,062252272720536E+003	7,2795302E-001	1,9946904E+000
6,069952272627314E+003	7,2813904E-001	1,9959613E+000
6,077652272534091E+003	7,2794282E-001	2,0004094E+000
6,085352272440854E+003	7,2819465E-001	1,9965969E+000
6,093052272347632E+003	7,2824425E-001	1,9857944E+000
6,100752272254409E+003	7,2820604E-001	1,9908779E+000
6,108452272161187E+003	7,2793090E-001	1,9997739E+000
6,116152272067964E+003	7,2807056E-001	1,9946904E+000
6,123852271974727E+003	7,2773349E-001	1,9965969E+000
6,131552271881505E+003	7,2803283E-001	1,9896070E+000
6,139252271788282E+003	7,2811031E-001	1,9927841E+000
6,146952271695060E+003	7,2802961E-001	1,9946904E+000
6,154652271601837E+003	7,2791600E-001	1,9883362E+000
6,162352271508600E+003	7,2814924E-001	1,9908779E+000
6,170052271415378E+003	7,2798109E-001	1,9857944E+000
6,177752271322155E+003	7,2825992E-001	1,9864298E+000
6,185452271228933E+003	7,2797352E-001	1,9902425E+000
6,193152271135710E+003	7,2794425E-001	1,9972322E+000
6,200852271042473E+003	7,2841531E-001	1,9921488E+000
6,208552270949251E+003	7,2799402E-001	1,9934196E+000
6,216252270856028E+003	7,2802430E-001	1,9896070E+000
6,223952270762806E+003	7,2803128E-001	1,9877007E+000
6,231652270669583E+003	7,2806340E-001	1,9921488E+000
6,239352270576346E+003	7,2808588E-001	1,9921488E+000
6,247052270483124E+003	7,2810835E-001	1,9959613E+000
6,254752270389901E+003	7,2851682E-001	1,9991385E+000
6,262452270296679E+003	7,2837645E-001	1,9940550E+000
6,270152270203456E+003	7,2820008E-001	1,9991385E+000
6,277852270110219E+003	7,2803414E-001	1,9946904E+000
6,285552270016997E+003	7,2879148E-001	1,9927841E+000
6,293252269923774E+003	7,2832000E-001	1,9851590E+000
6,300952269830552E+003	7,2841626E-001	1,9870653E+000
6,308652269737329E+003	7,2865492E-001	1,9959613E+000
6,316352269644092E+003	7,2855765E-001	1,9972322E+000
6,324052269550870E+003	7,2865075E-001	1,9877007E+000
6,331752269457647E+003	7,2850758E-001	1,9877007E+000
6,339452269364425E+003	7,2867423E-001	1,9845235E+000
6,347152269271202E+003	7,2854847E-001	1,9940550E+000
6,354852269177965E+003	7,2859544E-001	1,9921488E+000
6,362552269084743E+003	7,2848415E-001	1,9889716E+000
6,370252268991520E+003	7,2854644E-001	1,9813464E+000
6,377952268898298E+003	7,2826976E-001	1,9902425E+000
6,385652268805075E+003	7,2859085E-001	1,9902425E+000
6,393352268711838E+003	7,2882414E-001	1,9940550E+000
6,401052268618616E+003	7,2893894E-001	1,9889716E+000
6,408752268525393E+003	7,2888368E-001	1,9896070E+000
6,416452268432171E+003	7,2875243E-001	2,0023158E+000
6,424152268338948E+003	7,2853208E-001	1,9934196E+000
6,431852268245711E+003	7,2878087E-001	1,9985032E+000
6,439552268152489E+003	7,2881901E-001	1,9921488E+000
6,447252268059267E+003	7,2880346E-001	1,9877007E+000
6,454952267966044E+003	7,2866315E-001	1,9832528E+000
6,462652267872822E+003	7,2892463E-001	1,9978676E+000
6,470352267779585E+003	7,2873729E-001	1,9991385E+000
6,478052267686362E+003	7,2910613E-001	1,9870653E+000
6,485752267593140E+003	7,2896910E-001	1,9946904E+000
6,493452267499917E+003	7,2916156E-001	1,9864298E+000
6,501152267406695E+003	7,2894096E-001	1,9921488E+000
6,508852267313458E+003	7,2908646E-001	1,9889716E+000
6,516552267220235E+003	7,2909164E-001	1,9921488E+000
6,524252267127013E+003	7,2903711E-001	1,9953259E+000
6,531952267033790E+003	7,2912502E-001	1,9991385E+000
6,539652266940568E+003	7,2884738E-001	1,9927841E+000
6,547352266847331E+003	7,2868156E-001	1,9870653E+000
6,555052266754108E+003	7,2911608E-001	1,9883362E+000
6,562752266660886E+003	7,2903413E-001	1,9883362E+000
6,570452266567663E+003	7,2931832E-001	1,9877007E+000
6,578152266474441E+003	7,2928017E-001	1,9991385E+000
6,585852266381204E+003	7,2918653E-001	1,9851590E+000
6,593552266287981E+003	7,2902209E-001	1,9889716E+000
6,601252266194759E+003	7,2933477E-001	1,9959613E+000
6,608952266101536E+003	7,2901696E-001	1,9972322E+000
6,616652266008314E+003	7,2919679E-001	1,9965969E+000
6,624352265915077E+003	7,2892255E-001	1,9959613E+000
6,632052265821854E+003	7,2928911E-001	1,9915133E+000
6,639752265728632E+003	7,2964901E-001	1,9934196E+000
6,647452265635409E+003	7,2950423E-001	1,9883362E+000
6,655152265542187E+003	7,2928452E-001	1,9889716E+000
6,662852265448950E+003	7,2978836E-001	1,9857944E+000
6,670552265355727E+003	7,2939014E-001	1,9908779E+000
6,678252265262505E+003	7,2963780E-001	1,9902425E+000
6,685952265169282E+003	7,2942233E-001	1,9972322E+000
6,693652265076060E+003	7,2959918E-001	1,9953259E+000
6,701352264982823E+003	7,2943926E-001	1,9959613E+000
6,709052264889600E+003	7,2961074E-001	1,9883362E+000
6,716752264796378E+003	7,2932255E-001	1,9927841E+000
6,724452264703155E+003	7,2953486E-001	1,9902425E+000
6,732152264609933E+003	7,2951645E-001	1,9857944E+000
6,739852264516696E+003	7,2927052E-001	1,9934196E+000
6,747552264423473E+003	7,2950095E-001	1,9889716E+000
6,755252264330251E+003	7,2927040E-001	1,9959613E+000
6,762952264237028E+003	7,2904658E-001	1,9902425E+000
6,770652264143806E+003	7,2994560E-001	1,9883362E+000
6,778352264050569E+003	7,2932374E-001	1,9877007E+000
6,786052263957346E+003	7,2948748E-001	1,9883362E+000
6,793752263864124E+003	7,2991443E-001	1,9946904E+000
6,801452263770901E+003	7,2984588E-001	1,9845235E+000
6,809152263677679E+003	7,2974157E-001	1,9851590E+000
6,816852263584442E+003	7,2940654E-001	2,0010448E+000
6,824552263491219E+003	7,2942150E-001	1,9978676E+000
6,832252263397997E+003	7,2985989E-001	1,9908779E+000
6,839952263304775E+003	7,2972608E-001	1,9877007E+000
6,847652263211552E+003	7,2972512E-001	1,9870653E+000
6,855352263118315E+003	7,2970903E-001	1,9978676E+000
6,863052263025093E+003	7,2961420E-001	1,9946904E+000
6,870752262931870E+003	7,2992146E-001	1,9927841E+000
6,878452262838648E+003	7,2990930E-001	1,9908779E+000
6,886152262745425E+003	7,2963005E-001	1,9934196E+000
6,893852262652188E+003	7,3006570E-001	1,9946904E+000
6,901552262558966E+003	7,2968459E-001	1,9915133E+000
6,909252262465743E+003	7,2980976E-001	1,9870653E+000
6,916952262372521E+003	7,3011750E-001	1,9940550E+000
6,924652262279298E+003	7,2965896E-001	1,9978676E+000
6,932352262186061E+003	7,3013347E-001	1,9991385E+000
6,940052262092839E+003	7,2977650E-001	1,9921488E+000
6,947752261999616E+003	7,3000902E-001	1,9915133E+000
6,955452261906394E+003	7,3021078E-001	1,9940550E+000
6,963152261813171E+003	7,3009306E-001	1,9877007E+000
6,970852261719934E+003	7,3005271E-001	1,9921488E+000
6,978552261626712E+003	7,3021752E-001	1,9927841E+000
6,986252261533489E+003	7,3005611E-001	1,9889716E+000
6,993952261440267E+003	7,3007882E-001	1,9915133E+000
7,001652261347044E+003	7,3045796E-001	1,9864298E+000
7,009352261253807E+003	7,3015344E-001	1,9908779E+000
7,017052261160585E+003	7,3020267E-001	1,9940550E+000
7,024752261067362E+003	7,3052680E-001	1,9921488E+000
7,032452260974140E+003	7,3006111E-001	1,9946904E+000
7,040152260880917E+003	7,3005921E-001	1,9934196E+000
7,047852260787680E+003	7,3040777E-001	1,9978676E+000
7,055552260694458E+003	7,3018312E-001	1,9864298E+000
7,063252260601235E+003	7,3038697E-001	1,9883362E+000
7,070952260508013E+003	7,3034984E-001	1,9883362E+000
7,078652260414790E+003	7,3057270E-001	1,9953259E+000
7,086352260321553E+003	7,3076236E-001	1,9877007E+000
7,094052260228331E+003	7,3045927E-001	1,9921488E+000
7,101752260135108E+003	7,3020798E-001	1,9940550E+000
7,109452260041886E+003	7,3042685E-001	1,9908779E+000
7,117152259948663E+003	7,3074919E-001	1,9883362E+000
7,124852259855426E+003	7,3033202E-001	1,9978676E+000
7,132552259762204E+003	7,3061854E-001	1,9915133E+000
7,140252259668981E+003	7,3056126E-001	1,9927841E+000
7,147952259575759E+003	7,3056513E-001	1,9864298E+000
7,155652259482536E+003	7,3062640E-001	1,9972322E+000
7,163352259389299E+003	7,3061991E-001	1,9921488E+000
7,171052259296077E+003	7,3055249E-001	1,9902425E+000
7,178752259202854E+003	7,3056227E-001	1,9838881E+000
7,186452259109632E+003	7,3070776E-001	1,9883362E+000
7,194152259016410E+003	7,3088449E-001	1,9921488E+000
7,201852258923172E+003	7,3067015E-001	1,9997739E+000
7,209552258829950E+003	7,3102140E-001	1,9959613E+000
7,210052258823896E+003	7,3102349E-001	1,9813464E+000