File: fig_4_nife_ceo2/Stability_CP/Ni50Fe50_stability_10mA_cm2_2hrs_02_CP_C01.txt
time/s	<Ewe/V>	I/mA
1,005239974605502E+001	4,6201798E-001	1,9076359E+000
1,775239955153666E+001	6,8645912E-001	2,0054927E+000
2,545239935701829E+001	6,8515688E-001	2,0048575E+000
3,315239916249993E+001	6,8452251E-001	2,0105762E+000
4,085239896798157E+001	6,8417794E-001	2,0023158E+000
4,855239877346321E+001	6,8396425E-001	2,0042222E+000
5,625239857894485E+001	6,8377388E-001	2,0118473E+000
6,395239838442649E+001	6,8388677E-001	2,0048575E+000
7,165239818990813E+001	6,8372244E-001	2,0023158E+000
7,935239799538977E+001	6,8367046E-001	2,0073991E+000
8,705239780087140E+001	6,8373632E-001	1,9959613E+000
9,475239760635304E+001	6,8370700E-001	2,0023158E+000
1,024523974118347E+002	6,8373108E-001	2,0067637E+000
1,101523972173163E+002	6,8367815E-001	2,0054927E+000
1,178523970227980E+002	6,8361831E-001	1,9927841E+000
1,255523968282796E+002	6,8371177E-001	2,0016801E+000
1,332523966337612E+002	6,8367606E-001	2,0004094E+000
1,409523964392429E+002	6,8380249E-001	2,0061283E+000
1,486523962447245E+002	6,8369853E-001	2,0010448E+000
1,563523960502062E+002	6,8377274E-001	2,0073991E+000
1,640523958556878E+002	6,8397939E-001	2,0004094E+000
1,717523956611694E+002	6,8386328E-001	2,0023158E+000
1,794523954666511E+002	6,8391430E-001	2,0023158E+000
1,871523952721327E+002	6,8398237E-001	2,0016801E+000
1,948523950776143E+002	6,8390894E-001	2,0067637E+000
2,025523948830960E+002	6,8396199E-001	2,0016801E+000
2,102523946885776E+002	6,8403244E-001	1,9997739E+000
2,179523944940593E+002	6,8401659E-001	1,9972322E+000
2,256523942995409E+002	6,8409705E-001	2,0029511E+000
2,333523941050225E+002	6,8402767E-001	1,9940550E+000
2,410523939105042E+002	6,8419152E-001	1,9978676E+000
2,487523937159858E+002	6,8411285E-001	2,0042222E+000
2,564523935214675E+002	6,8414634E-001	1,9991385E+000
2,641523933269491E+002	6,8456280E-001	2,0016801E+000
2,718523931324307E+002	6,8420899E-001	2,0029511E+000
2,795523929379124E+002	6,8407565E-001	2,0042222E+000
2,872523927433940E+002	6,8429363E-001	2,0004094E+000
2,949523925488757E+002	6,8429083E-001	2,0099409E+000
3,026523923543573E+002	6,8430066E-001	2,0073991E+000
3,103523921598389E+002	6,8448430E-001	2,0035865E+000
3,180523919653206E+002	6,8440276E-001	2,0016801E+000
3,257523917708022E+002	6,8449819E-001	2,0016801E+000
3,334523915762838E+002	6,8444264E-001	1,9997739E+000
3,411523913817655E+002	6,8448049E-001	2,0048575E+000
3,488523911872471E+002	6,8458092E-001	1,9997739E+000
3,565523909927288E+002	6,8456030E-001	2,0086701E+000
3,642523907982104E+002	6,8454599E-001	2,0054927E+000
3,719523906036920E+002	6,8457967E-001	1,9991385E+000
3,796523904091737E+002	6,8464744E-001	2,0035865E+000
3,873523902146553E+002	6,8458760E-001	1,9978676E+000
3,950523900201370E+002	6,8466753E-001	2,0010448E+000
4,027523898256186E+002	6,8475217E-001	1,9985032E+000
4,104523896311002E+002	6,8473446E-001	2,0029511E+000
4,181523894365819E+002	6,8468690E-001	1,9997739E+000
4,258523892420635E+002	6,8480611E-001	1,9991385E+000
4,335523890475451E+002	6,8484426E-001	2,0080347E+000
4,412523888530268E+002	6,8481272E-001	2,0054927E+000
4,489523886585084E+002	6,8485236E-001	2,0035865E+000
4,566523884639901E+002	6,8483025E-001	2,0029511E+000
4,643523882694717E+002	6,8485308E-001	2,0010448E+000
4,720523880749533E+002	6,8493414E-001	2,0054927E+000
4,797523878804350E+002	6,8502408E-001	1,9991385E+000
4,874523876859166E+002	6,8502200E-001	2,0054927E+000
4,951523874913983E+002	6,8488085E-001	2,0004094E+000
5,028523872968799E+002	6,8508899E-001	2,0010448E+000
5,105523871023615E+002	6,8495303E-001	1,9978676E+000
5,182523869078432E+002	6,8497723E-001	2,0093055E+000
5,259523867133248E+002	6,8505138E-001	1,9921488E+000
5,336523865188065E+002	6,8509275E-001	2,0004094E+000
5,413523863242881E+002	6,8514061E-001	2,0004094E+000
5,490523861297697E+002	6,8515217E-001	1,9997739E+000
5,567523859352514E+002	6,8511081E-001	2,0035865E+000
5,644523857407330E+002	6,8515408E-001	2,0080347E+000
5,721523855462146E+002	6,8517619E-001	1,9985032E+000
5,798523853516963E+002	6,8515635E-001	2,0010448E+000
5,875523851571779E+002	6,8523091E-001	2,0029511E+000
5,952523849626596E+002	6,8521446E-001	1,9991385E+000
6,029523847681412E+002	6,8522882E-001	2,0029511E+000
6,106523845736228E+002	6,8534583E-001	2,0042222E+000
6,183523843791045E+002	6,8528742E-001	2,0054927E+000
6,260523841845861E+002	6,8539006E-001	1,9978676E+000
6,337523839900678E+002	6,8560696E-001	2,0004094E+000
6,414523837955494E+002	6,8538320E-001	2,0023158E+000
6,491523836010310E+002	6,8541366E-001	2,0054927E+000
6,568523834065127E+002	6,8541837E-001	1,9965969E+000
6,645523832119943E+002	6,8524456E-001	2,0023158E+000
6,722523830174760E+002	6,8531471E-001	2,0061283E+000
6,799523828229576E+002	6,8533480E-001	1,9965969E+000
6,876523826284392E+002	6,8549865E-001	2,0042222E+000
6,953523824339209E+002	6,8555814E-001	2,0029511E+000
7,030523822394025E+002	6,8552268E-001	2,0054927E+000
7,107523820448841E+002	6,8539846E-001	2,0073991E+000
7,184523818503658E+002	6,8557411E-001	2,0054927E+000
7,261523816558474E+002	6,8560326E-001	2,0016801E+000
7,338523814613291E+002	6,8565971E-001	1,9965969E+000
7,415523812668107E+002	6,8552804E-001	1,9959613E+000
7,492523810722923E+002	6,8547827E-001	2,0004094E+000
7,569523808777740E+002	6,8556553E-001	2,0016801E+000
7,646523806832556E+002	6,8556011E-001	2,0029511E+000
7,723523804887373E+002	6,8562299E-001	1,9978676E+000
7,800523802942189E+002	6,8562788E-001	2,0023158E+000
7,877523800997005E+002	6,8562621E-001	2,0042222E+000
7,954523799051822E+002	6,8572497E-001	1,9978676E+000
8,031523797106638E+002	6,8581378E-001	2,0029511E+000
8,108523795161454E+002	6,8563420E-001	1,9946904E+000
8,185523793216271E+002	6,8561411E-001	1,9921488E+000
8,262523791271087E+002	6,8570954E-001	1,9972322E+000
8,339523789325904E+002	6,8577719E-001	2,0099409E+000
8,416523787380720E+002	6,8579495E-001	1,9997739E+000
8,493523785435536E+002	6,8578124E-001	2,0054927E+000
8,570523783490353E+002	6,8583351E-001	1,9991385E+000
8,647523781545169E+002	6,8575519E-001	2,0054927E+000
8,724523779599986E+002	6,8587065E-001	2,0118473E+000
8,801523777654802E+002	6,8600106E-001	2,0061283E+000
8,878523775709618E+002	6,8592411E-001	2,0080347E+000
8,955523773764435E+002	6,8588299E-001	1,9915133E+000
9,032523771819251E+002	6,8589061E-001	2,0118473E+000
9,109523769874068E+002	6,8584025E-001	2,0010448E+000
9,186523767928884E+002	6,8591702E-001	2,0099409E+000
9,263523765983700E+002	6,8597519E-001	1,9991385E+000
9,340523764038517E+002	6,8587887E-001	2,0016801E+000
9,417523762093333E+002	6,8586868E-001	2,0061283E+000
9,494523760148149E+002	6,8604779E-001	1,9965969E+000
9,571523758202966E+002	6,8601364E-001	1,9934196E+000
9,648523756257782E+002	6,8601614E-001	1,9997739E+000
9,725523754312599E+002	6,8604833E-001	1,9915133E+000
9,802523752367415E+002	6,8597353E-001	2,0054927E+000
9,879523750422231E+002	6,8592435E-001	2,0067637E+000
9,956523748477048E+002	6,8596739E-001	1,9965969E+000
1,003352374653186E+003	6,8606091E-001	1,9953259E+000
1,011052374458668E+003	6,8608868E-001	2,0029511E+000
1,018752374264150E+003	6,8611205E-001	2,0010448E+000
1,026452374069631E+003	6,8610501E-001	2,0048575E+000
1,034152373875113E+003	6,8602312E-001	2,0073991E+000
1,041852373680595E+003	6,8614161E-001	1,9997739E+000
1,049552373486076E+003	6,8607265E-001	2,0054927E+000
1,057252373291558E+003	6,8607533E-001	2,0042222E+000
1,064952373097040E+003	6,8615842E-001	1,9978676E+000
1,072652372902521E+003	6,8628138E-001	1,9997739E+000
1,080352372708003E+003	6,8614304E-001	1,9959613E+000
1,088052372513484E+003	6,8619829E-001	2,0023158E+000
1,095752372318966E+003	6,8609631E-001	2,0054927E+000
1,103452372124448E+003	6,8628037E-001	1,9991385E+000
1,111152371929929E+003	6,8612921E-001	2,0054927E+000
1,118852371735411E+003	6,8622935E-001	2,0086701E+000
1,126552371540893E+003	6,8625861E-001	2,0010448E+000
1,134252371346374E+003	6,8626869E-001	1,9997739E+000
1,141952371151856E+003	6,8638617E-001	2,0023158E+000
1,149652370957338E+003	6,8630320E-001	1,9991385E+000
1,157352370762819E+003	6,8633366E-001	1,9991385E+000
1,165052370568301E+003	6,8637741E-001	1,9978676E+000
1,172752370373782E+003	6,8625349E-001	2,0042222E+000
1,180452370179264E+003	6,8639588E-001	1,9972322E+000
1,188152369984746E+003	6,8625981E-001	1,9978676E+000
1,195852369790227E+003	6,8622208E-001	2,0029511E+000
1,203552369595709E+003	6,8620032E-001	2,0067637E+000
1,211252369401191E+003	6,8637389E-001	2,0073991E+000
1,218952369206672E+003	6,8625492E-001	1,9978676E+000
1,226652369012154E+003	6,8641055E-001	2,0035865E+000
1,234352368817636E+003	6,8630975E-001	2,0010448E+000
1,242052368623117E+003	6,8637317E-001	1,9991385E+000
1,249752368428599E+003	6,8630904E-001	1,9997739E+000
1,257452368234081E+003	6,8626034E-001	2,0099409E+000
1,265152368039562E+003	6,8645257E-001	1,9927841E+000
1,272852367845044E+003	6,8628961E-001	2,0023158E+000
1,280552367650525E+003	6,8633181E-001	1,9940550E+000
1,288252367456007E+003	6,8636078E-001	1,9946904E+000
1,295952367261489E+003	6,8641889E-001	1,9991385E+000
1,303652367066970E+003	6,8632406E-001	2,0067637E+000
1,311352366872452E+003	6,8641633E-001	2,0080347E+000
1,319052366677934E+003	6,8648732E-001	1,9985032E+000
1,326752366483415E+003	6,8662786E-001	1,9972322E+000
1,334452366288897E+003	6,8649554E-001	2,0061283E+000
1,342152366094379E+003	6,8652016E-001	2,0023158E+000
1,349852365899860E+003	6,8656808E-001	2,0112119E+000
1,357552365705342E+003	6,8633759E-001	2,0023158E+000
1,365252365510823E+003	6,8644285E-001	2,0093055E+000
1,372952365316305E+003	6,8640918E-001	1,9991385E+000
1,380652365121787E+003	6,8633515E-001	2,0048575E+000
1,388352364927268E+003	6,8643343E-001	1,9959613E+000
1,396052364732750E+003	6,8641919E-001	1,9940550E+000
1,403752364538232E+003	6,8651545E-001	2,0023158E+000
1,411452364343713E+003	6,8656188E-001	2,0035865E+000
1,419152364149195E+003	6,8647635E-001	1,9959613E+000
1,426852363954677E+003	6,8643075E-001	2,0023158E+000
1,434552363760158E+003	6,8650293E-001	2,0042222E+000
1,442252363565640E+003	6,8646914E-001	2,0067637E+000
1,449952363371121E+003	6,8656492E-001	2,0048575E+000
1,457652363176603E+003	6,8657410E-001	2,0023158E+000
1,465352362982085E+003	6,8648529E-001	1,9915133E+000
1,473052362787566E+003	6,8663692E-001	2,0010448E+000
1,480752362593048E+003	6,8661141E-001	1,9991385E+000
1,488452362398530E+003	6,8666810E-001	1,9978676E+000
1,496152362204011E+003	6,8660855E-001	2,0029511E+000
1,503852362009493E+003	6,8656713E-001	2,0004094E+000
1,511552361814975E+003	6,8647438E-001	1,9985032E+000
1,519252361620456E+003	6,8665028E-001	1,9946904E+000
1,526952361425938E+003	6,8673229E-001	1,9978676E+000
1,534652361231419E+003	6,8643725E-001	1,9953259E+000
1,542352361036901E+003	6,8658543E-001	2,0080347E+000
1,550052360842383E+003	6,8670338E-001	1,9972322E+000
1,557752360647864E+003	6,8654633E-001	2,0035865E+000
1,565452360453346E+003	6,8655759E-001	1,9953259E+000
1,573152360258828E+003	6,8657726E-001	2,0054927E+000
1,580852360064309E+003	6,8658036E-001	2,0035865E+000
1,588552359869791E+003	6,8664956E-001	1,9953259E+000
1,596252359675273E+003	6,8667388E-001	1,9883362E+000
1,603952359480754E+003	6,8667692E-001	2,0080347E+000
1,611652359286236E+003	6,8655026E-001	2,0118473E+000
1,619352359091718E+003	6,8671924E-001	2,0023158E+000
1,627052358897199E+003	6,8665785E-001	2,0004094E+000
1,634752358702681E+003	6,8664056E-001	2,0048575E+000
1,642452358508162E+003	6,8658918E-001	2,0054927E+000
1,650152358313644E+003	6,8674350E-001	1,9978676E+000
1,657852358119126E+003	6,8660635E-001	2,0061283E+000
1,665552357924607E+003	6,8661857E-001	2,0029511E+000
1,673252357730089E+003	6,8673199E-001	2,0048575E+000
1,680952357535571E+003	6,8671018E-001	2,0042222E+000
1,688652357341052E+003	6,8679994E-001	2,0010448E+000
1,696352357146534E+003	6,8675226E-001	1,9985032E+000
1,704052356952016E+003	6,8680596E-001	2,0004094E+000
1,711752356757497E+003	6,8668342E-001	2,0029511E+000
1,719452356562979E+003	6,8668842E-001	2,0004094E+000
1,727152356368460E+003	6,8679744E-001	2,0054927E+000
1,734852356173942E+003	6,8665236E-001	1,9985032E+000
1,742552355979424E+003	6,8663758E-001	2,0016801E+000
1,750252355784905E+003	6,8676597E-001	2,0023158E+000
1,757952355590387E+003	6,8680453E-001	2,0086701E+000
1,765652355395869E+003	6,8673080E-001	1,9997739E+000
1,773352355201350E+003	6,8685567E-001	2,0048575E+000
1,781052355006832E+003	6,8685853E-001	1,9985032E+000
1,788752354812314E+003	6,8697041E-001	2,0023158E+000
1,796452354617795E+003	6,8669087E-001	1,9978676E+000
1,804152354423277E+003	6,8681425E-001	1,9946904E+000
1,811852354228758E+003	6,8687439E-001	1,9965969E+000
1,819552354034240E+003	6,8680274E-001	1,9946904E+000
1,827252353839722E+003	6,8675172E-001	2,0035865E+000
1,834952353645203E+003	6,8688142E-001	1,9965969E+000
1,842652353450685E+003	6,8677342E-001	1,9991385E+000
1,850352353256167E+003	6,8681252E-001	1,9953259E+000
1,858052353061648E+003	6,8679756E-001	1,9985032E+000
1,865752352867130E+003	6,8691725E-001	1,9934196E+000
1,873452352672612E+003	6,8680918E-001	1,9940550E+000
1,881152352478093E+003	6,8676913E-001	2,0042222E+000
1,888852352283575E+003	6,8686366E-001	1,9946904E+000
1,896552352089057E+003	6,8677473E-001	1,9921488E+000
1,904252351894538E+003	6,8671405E-001	2,0042222E+000
1,911952351700020E+003	6,8680239E-001	2,0029511E+000
1,919652351505501E+003	6,8677872E-001	2,0035865E+000
1,927352351310983E+003	6,8689954E-001	1,9991385E+000
1,935052351116465E+003	6,8689913E-001	2,0093055E+000
1,942752350921946E+003	6,8683547E-001	2,0054927E+000
1,950452350727428E+003	6,8684399E-001	2,0086701E+000
1,958152350532910E+003	6,8678439E-001	1,9997739E+000
1,965852350338391E+003	6,8689251E-001	1,9978676E+000
1,973552350143873E+003	6,8693590E-001	2,0029511E+000
1,981252349949355E+003	6,8692905E-001	2,0073991E+000
1,988952349754836E+003	6,8699306E-001	1,9946904E+000
1,996652349560318E+003	6,8687505E-001	2,0035865E+000
2,004352349365799E+003	6,8699795E-001	1,9953259E+000
2,012052349171281E+003	6,8703747E-001	1,9953259E+000
2,019752348976763E+003	6,8684113E-001	2,0067637E+000
2,027452348782244E+003	6,8703610E-001	1,9991385E+000
2,035152348587726E+003	6,8699098E-001	1,9959613E+000
2,042852348393208E+003	6,8691087E-001	2,0035865E+000
2,050552348198689E+003	6,8683410E-001	1,9908779E+000
2,058252348004171E+003	6,8692166E-001	1,9940550E+000
2,065952347809653E+003	6,8697155E-001	2,0061283E+000
2,073652347615134E+003	6,8699533E-001	2,0029511E+000
2,081352347420616E+003	6,8706137E-001	2,0023158E+000
2,089052347226097E+003	6,8690878E-001	2,0035865E+000
2,096752347031579E+003	6,8689382E-001	2,0067637E+000
2,104452346837061E+003	6,8688393E-001	2,0004094E+000
2,112152346642542E+003	6,8693936E-001	2,0004094E+000
2,119852346448024E+003	6,8687254E-001	1,9985032E+000
2,127552346253506E+003	6,8680978E-001	1,9965969E+000
2,135252346058987E+003	6,8683559E-001	1,9946904E+000
2,142952345864469E+003	6,8690258E-001	2,0016801E+000
2,150652345669951E+003	6,8697011E-001	1,9953259E+000
2,158352345475432E+003	6,8687826E-001	2,0067637E+000
2,166052345280914E+003	6,8691111E-001	2,0010448E+000
2,173752345086396E+003	6,8691212E-001	1,9946904E+000
2,181452344891877E+003	6,8701917E-001	1,9965969E+000
2,189152344697359E+003	6,8699360E-001	2,0054927E+000
2,196852344502840E+003	6,8701059E-001	2,0016801E+000
2,204552344308322E+003	6,8704689E-001	2,0004094E+000
2,212252344113804E+003	6,8694019E-001	2,0029511E+000
2,219952343919285E+003	6,8704784E-001	2,0035865E+000
2,227652343724767E+003	6,8697244E-001	2,0004094E+000
2,235352343530249E+003	6,8689275E-001	2,0099409E+000
2,243052343335730E+003	6,8693197E-001	1,9997739E+000
2,250752343141212E+003	6,8706828E-001	2,0029511E+000
2,258452342946694E+003	6,8700308E-001	2,0004094E+000
2,266152342752175E+003	6,8702650E-001	2,0023158E+000
2,273852342557657E+003	6,8699712E-001	2,0067637E+000
2,281552342363138E+003	6,8685412E-001	1,9985032E+000
2,289252342168620E+003	6,8700129E-001	2,0016801E+000
2,296952341974102E+003	6,8694097E-001	1,9965969E+000
2,304652341779583E+003	6,8703592E-001	2,0042222E+000
2,312352341585065E+003	6,8691397E-001	2,0029511E+000
2,320052341390547E+003	6,8693423E-001	2,0099409E+000
2,327752341196028E+003	6,8696171E-001	1,9991385E+000
2,335452341001510E+003	6,8703562E-001	2,0137534E+000
2,343152340806992E+003	6,8703288E-001	2,0061283E+000
2,350852340612473E+003	6,8701309E-001	2,0010448E+000
2,358552340417955E+003	6,8693095E-001	1,9985032E+000
2,366252340223436E+003	6,8697697E-001	2,0035865E+000
2,373952340028918E+003	6,8703955E-001	2,0023158E+000
2,381652339834400E+003	6,8698359E-001	2,0010448E+000
2,389352339639881E+003	6,8689424E-001	2,0067637E+000
2,397052339445363E+003	6,8709594E-001	1,9953259E+000
2,404752339250845E+003	6,8694389E-001	2,0061283E+000
2,412452339056326E+003	6,8700230E-001	2,0067637E+000
2,420152338861808E+003	6,8693388E-001	1,9934196E+000
2,427852338667290E+003	6,8700671E-001	2,0035865E+000
2,435552338472771E+003	6,8705368E-001	2,0010448E+000
2,443252338278253E+003	6,8703169E-001	1,9959613E+000
2,450952338083735E+003	6,8695235E-001	1,9965969E+000
2,458652337889216E+003	6,8709540E-001	2,0073991E+000
2,466352337694698E+003	6,8713117E-001	2,0004094E+000
2,474052337500179E+003	6,8702966E-001	2,0073991E+000
2,481752337305661E+003	6,8704695E-001	1,9959613E+000
2,489452337111143E+003	6,8698472E-001	1,9946904E+000
2,497152336916624E+003	6,8700284E-001	1,9997739E+000
2,504852336722106E+003	6,8695241E-001	2,0016801E+000
2,512552336527588E+003	6,8696070E-001	2,0004094E+000
2,520252336333069E+003	6,8705946E-001	1,9997739E+000
2,527952336138551E+003	6,8694687E-001	2,0004094E+000
2,535652335944033E+003	6,8698615E-001	2,0067637E+000
2,543352335749514E+003	6,8698931E-001	1,9985032E+000
2,551052335554996E+003	6,8704444E-001	1,9997739E+000
2,558752335360477E+003	6,8709868E-001	2,0010448E+000
2,566452335165959E+003	6,8704206E-001	1,9965969E+000
2,574152334971441E+003	6,8698049E-001	1,9972322E+000
2,581852334776922E+003	6,8703669E-001	1,9985032E+000
2,589552334582404E+003	6,8699837E-001	2,0016801E+000
2,597252334387886E+003	6,8705767E-001	2,0023158E+000
2,604952334193367E+003	6,8695468E-001	1,9972322E+000
2,612652333998849E+003	6,8710220E-001	1,9940550E+000
2,620352333804331E+003	6,8701595E-001	2,0016801E+000
2,628052333609812E+003	6,8698168E-001	1,9940550E+000
2,635752333415294E+003	6,8692040E-001	1,9921488E+000
2,643452333220775E+003	6,8704623E-001	1,9991385E+000
2,651152333026257E+003	6,8697011E-001	2,0016801E+000
2,658852332831739E+003	6,8705809E-001	2,0042222E+000
2,666552332637220E+003	6,8710566E-001	2,0029511E+000
2,674252332442702E+003	6,8711567E-001	1,9972322E+000
2,681952332248184E+003	6,8707436E-001	2,0067637E+000
2,689652332053665E+003	6,8703383E-001	2,0023158E+000
2,697352331859147E+003	6,8703896E-001	2,0029511E+000
2,705052331664629E+003	6,8711931E-001	1,9985032E+000
2,712752331470110E+003	6,8706042E-001	2,0004094E+000
2,720452331275592E+003	6,8699592E-001	2,0061283E+000
2,728152331081074E+003	6,8694556E-001	1,9997739E+000
2,735852330886555E+003	6,8693542E-001	2,0067637E+000
2,743552330692037E+003	6,8691796E-001	1,9965969E+000
2,751252330497518E+003	6,8710470E-001	1,9978676E+000
2,758952330303000E+003	6,8706143E-001	1,9953259E+000
2,766652330108482E+003	6,8708974E-001	2,0023158E+000
2,774352329913963E+003	6,8692183E-001	2,0054927E+000
2,782052329719445E+003	6,8698108E-001	2,0054927E+000
2,789752329524927E+003	6,8700635E-001	2,0029511E+000
2,797452329330408E+003	6,8701893E-001	2,0086701E+000
2,805152329135890E+003	6,8708766E-001	2,0086701E+000
2,812852328941372E+003	6,8704027E-001	2,0086701E+000
2,820552328746853E+003	6,8697673E-001	2,0016801E+000
2,828252328552335E+003	6,8698198E-001	1,9991385E+000
2,835952328357816E+003	6,8701714E-001	2,0067637E+000
2,843652328163298E+003	6,8704462E-001	2,0042222E+000
2,851352327968780E+003	6,8705183E-001	2,0004094E+000
2,859052327774261E+003	6,8711168E-001	2,0061283E+000
2,866752327579743E+003	6,8708473E-001	2,0023158E+000
2,874452327385225E+003	6,8702120E-001	2,0048575E+000
2,882152327190706E+003	6,8700790E-001	1,9997739E+000
2,889852326996188E+003	6,8702453E-001	1,9997739E+000
2,897552326801670E+003	6,8690282E-001	1,9965969E+000
2,905252326607151E+003	6,8701482E-001	2,0010448E+000
2,912952326412633E+003	6,8696910E-001	2,0004094E+000
2,920652326218114E+003	6,8712646E-001	2,0010448E+000
2,928352326023596E+003	6,8706667E-001	1,9997739E+000
2,936052325829078E+003	6,8702787E-001	2,0048575E+000
2,943752325634559E+003	6,8708491E-001	1,9972322E+000
2,951452325440041E+003	6,8697232E-001	2,0016801E+000
2,959152325245523E+003	6,8707395E-001	2,0016801E+000
2,966852325051004E+003	6,8709421E-001	2,0023158E+000
2,974552324856486E+003	6,8699551E-001	2,0048575E+000
2,982252324661968E+003	6,8711132E-001	2,0010448E+000
2,989952324467449E+003	6,8715912E-001	2,0061283E+000
2,997652324272931E+003	6,8692440E-001	1,9908779E+000
3,005352324078412E+003	6,8702745E-001	1,9997739E+000
3,013052323883894E+003	6,8709850E-001	1,9997739E+000
3,020752323689376E+003	6,8711036E-001	2,0080347E+000
3,028452323494857E+003	6,8703717E-001	2,0010448E+000
3,036152323300339E+003	6,8703198E-001	2,0048575E+000
3,043852323105821E+003	6,8708867E-001	1,9972322E+000
3,051552322911302E+003	6,8697482E-001	2,0010448E+000
3,059252322716784E+003	6,8700415E-001	2,0016801E+000
3,066952322522266E+003	6,8686050E-001	2,0054927E+000
3,074652322327747E+003	6,8712640E-001	1,9997739E+000
3,082352322133229E+003	6,8699545E-001	2,0054927E+000
3,090052321938711E+003	6,8703610E-001	1,9972322E+000
3,097752321744192E+003	6,8706352E-001	1,9978676E+000
3,105452321549674E+003	6,8700635E-001	2,0010448E+000
3,113152321355155E+003	6,8697596E-001	2,0004094E+000
3,120852321160637E+003	6,8703371E-001	1,9997739E+000
3,128552320966119E+003	6,8696678E-001	1,9978676E+000
3,136252320771600E+003	6,8700755E-001	2,0042222E+000
3,143952320577082E+003	6,8704742E-001	1,9965969E+000
3,151652320382564E+003	6,8702239E-001	1,9978676E+000
3,159352320188045E+003	6,8722689E-001	2,0061283E+000
3,167052319993527E+003	6,8708819E-001	1,9972322E+000
3,174752319799009E+003	6,8713731E-001	1,9985032E+000
3,182452319604490E+003	6,8710607E-001	2,0023158E+000
3,190152319409972E+003	6,8706906E-001	2,0061283E+000
3,197852319215453E+003	6,8703651E-001	2,0016801E+000
3,205552319020935E+003	6,8730450E-001	2,0042222E+000
3,213252318826417E+003	6,8706489E-001	2,0099409E+000
3,220952318631898E+003	6,8715119E-001	1,9985032E+000
3,228652318437380E+003	6,8703008E-001	1,9985032E+000
3,236352318242862E+003	6,8715113E-001	2,0023158E+000
3,244052318048343E+003	6,8715024E-001	2,0054927E+000
3,251752317853825E+003	6,8720156E-001	1,9965969E+000
3,259452317659307E+003	6,8721062E-001	2,0048575E+000
3,267152317464788E+003	6,8704611E-001	2,0016801E+000
3,274852317270270E+003	6,8713319E-001	2,0023158E+000
3,282552317075751E+003	6,8713325E-001	1,9959613E+000
3,290252316881233E+003	6,8710929E-001	2,0048575E+000
3,297952316686715E+003	6,8713802E-001	2,0029511E+000
3,305652316492196E+003	6,8696141E-001	1,9997739E+000
3,313352316297678E+003	6,8711603E-001	1,9991385E+000
3,321052316103160E+003	6,8713254E-001	1,9997739E+000
3,328752315908641E+003	6,8722421E-001	1,9959613E+000
3,336452315714123E+003	6,8729722E-001	1,9991385E+000
3,344152315519605E+003	6,8698639E-001	2,0023158E+000
3,351852315325086E+003	6,8706560E-001	2,0004094E+000
3,359552315130568E+003	6,8715638E-001	2,0029511E+000
3,367252314936050E+003	6,8732053E-001	2,0016801E+000
3,374952314741531E+003	6,8721086E-001	1,9991385E+000
3,382652314547013E+003	6,8707037E-001	1,9978676E+000
3,390352314352494E+003	6,8718272E-001	1,9985032E+000
3,398052314157976E+003	6,8723947E-001	2,0035865E+000
3,405752313963458E+003	6,8724626E-001	2,0035865E+000
3,413452313768939E+003	6,8721813E-001	2,0004094E+000
3,421152313574421E+003	6,8713558E-001	2,0023158E+000
3,428852313379903E+003	6,8719149E-001	1,9946904E+000
3,436552313185384E+003	6,8719614E-001	2,0073991E+000
3,444252312990866E+003	6,8722761E-001	1,9940550E+000
3,451952312796348E+003	6,8728536E-001	2,0067637E+000
3,459652312601829E+003	6,8717110E-001	2,0042222E+000
3,467352312407311E+003	6,8711776E-001	2,0073991E+000
3,475052312212792E+003	6,8714046E-001	2,0054927E+000
3,482752312018274E+003	6,8710220E-001	1,9985032E+000
3,490452311823756E+003	6,8727803E-001	2,0061283E+000
3,498152311629237E+003	6,8723643E-001	2,0048575E+000
3,505852311434719E+003	6,8716365E-001	2,0004094E+000
3,513552311240201E+003	6,8701255E-001	2,0010448E+000
3,521252311045682E+003	6,8720180E-001	1,9985032E+000
3,528952310851164E+003	6,8718666E-001	2,0054927E+000
3,536652310656646E+003	6,8709528E-001	1,9978676E+000
3,544352310462127E+003	6,8719387E-001	2,0035865E+000
3,552052310267609E+003	6,8727517E-001	1,9985032E+000
3,559752310073090E+003	6,8715852E-001	1,9985032E+000
3,567452309878572E+003	6,8714398E-001	2,0023158E+000
3,575152309684054E+003	6,8714136E-001	2,0004094E+000
3,582852309489535E+003	6,8716222E-001	2,0010448E+000
3,590552309295017E+003	6,8724114E-001	2,0004094E+000
3,598252309100499E+003	6,8709612E-001	1,9965969E+000
3,605952308905980E+003	6,8709785E-001	2,0080347E+000
3,613652308711462E+003	6,8726903E-001	2,0004094E+000
3,621352308516944E+003	6,8703473E-001	2,0073991E+000
3,629052308322425E+003	6,8721342E-001	2,0016801E+000
3,636752308127907E+003	6,8716413E-001	2,0023158E+000
3,644452307933389E+003	6,8707699E-001	1,9985032E+000
3,652152307738870E+003	6,8713671E-001	1,9927841E+000
3,659852307544352E+003	6,8717891E-001	1,9985032E+000
3,667552307349833E+003	6,8726248E-001	2,0048575E+000
3,675252307155315E+003	6,8729311E-001	2,0023158E+000
3,682952306960797E+003	6,8709403E-001	2,0023158E+000
3,690652306766278E+003	6,8717974E-001	1,9934196E+000
3,698352306571760E+003	6,8702668E-001	2,0182016E+000
3,706052306377242E+003	6,8718135E-001	1,9978676E+000
3,713752306182723E+003	6,8706787E-001	2,0035865E+000
3,721452305988205E+003	6,8702471E-001	1,9997739E+000
3,729152305793687E+003	6,8707496E-001	2,0004094E+000
3,736852305599168E+003	6,8721747E-001	1,9953259E+000
3,744552305404650E+003	6,8708295E-001	2,0093055E+000
3,752252305210131E+003	6,8709534E-001	2,0073991E+000
3,759952305015613E+003	6,8726701E-001	1,9985032E+000
3,767652304821095E+003	6,8715805E-001	2,0023158E+000
3,775352304626576E+003	6,8707258E-001	1,9978676E+000
3,783052304432058E+003	6,8714595E-001	2,0004094E+000
3,790752304237540E+003	6,8706799E-001	2,0080347E+000
3,798452304043021E+003	6,8722814E-001	2,0042222E+000
3,806152303848503E+003	6,8714422E-001	1,9959613E+000
3,813852303653985E+003	6,8714696E-001	2,0048575E+000
3,821552303459466E+003	6,8716699E-001	2,0004094E+000
3,829252303264948E+003	6,8703657E-001	1,9978676E+000
3,836952303070429E+003	6,8714833E-001	1,9959613E+000
3,844652302875911E+003	6,8713486E-001	2,0010448E+000
3,852352302681393E+003	6,8716955E-001	1,9997739E+000
3,860052302486874E+003	6,8706816E-001	2,0048575E+000
3,867752302292356E+003	6,8696344E-001	2,0054927E+000
3,875452302097838E+003	6,8707156E-001	2,0061283E+000
3,883152301903319E+003	6,8704867E-001	2,0016801E+000
3,890852301708801E+003	6,8702823E-001	2,0016801E+000
3,898552301514283E+003	6,8719953E-001	1,9953259E+000
3,906252301319764E+003	6,8709719E-001	2,0010448E+000
3,913952301125246E+003	6,8715024E-001	1,9896070E+000
3,921652300930728E+003	6,8705374E-001	2,0048575E+000
3,929352300736209E+003	6,8692499E-001	1,9985032E+000
3,937052300541691E+003	6,8713367E-001	2,0086701E+000
3,944752300347172E+003	6,8708372E-001	1,9991385E+000
3,952452300152654E+003	6,8705773E-001	2,0004094E+000
3,960152299958136E+003	6,8703657E-001	2,0073991E+000
3,967852299763617E+003	6,8696123E-001	1,9972322E+000
3,975552299569099E+003	6,8699968E-001	2,0016801E+000
3,983252299374581E+003	6,8707192E-001	1,9972322E+000
3,990952299180062E+003	6,8703163E-001	2,0086701E+000
3,998652298985544E+003	6,8703270E-001	2,0118473E+000
4,006352298791026E+003	6,8700349E-001	1,9927841E+000
4,014052298596507E+003	6,8699592E-001	1,9965969E+000
4,021752298401989E+003	6,8704134E-001	2,0048575E+000
4,029452298207470E+003	6,8712181E-001	1,9946904E+000
4,037152298012952E+003	6,8705153E-001	1,9946904E+000
4,044852297818434E+003	6,8708658E-001	1,9997739E+000
4,052552297623915E+003	6,8705755E-001	1,9997739E+000
4,060252297429397E+003	6,8708116E-001	2,0042222E+000
4,067952297234879E+003	6,8703932E-001	2,0105762E+000
4,075652297040360E+003	6,8692994E-001	2,0048575E+000
4,083352296845842E+003	6,8690878E-001	2,0061283E+000
4,091052296651324E+003	6,8699056E-001	2,0042222E+000
4,098752296493010E+003	6,8697661E-001	1,9959613E+000
4,106452296399788E+003	6,8696839E-001	2,0035865E+000
4,114152296306565E+003	6,8712956E-001	2,0054927E+000
4,121852296213328E+003	6,8706256E-001	2,0054927E+000
4,129552296120106E+003	6,8695223E-001	1,9940550E+000
4,137252296026883E+003	6,8715632E-001	1,9965969E+000
4,144952295933661E+003	6,8706417E-001	2,0029511E+000
4,152652295840438E+003	6,8708050E-001	2,0042222E+000
4,160352295747201E+003	6,8733352E-001	2,0105762E+000
4,168052295653979E+003	6,8706274E-001	1,9940550E+000
4,175752295560756E+003	6,8701047E-001	1,9978676E+000
4,183452295467534E+003	6,8701982E-001	1,9934196E+000
4,191152295374312E+003	6,8700278E-001	2,0042222E+000
4,198852295281074E+003	6,8716908E-001	1,9978676E+000
4,206552295187852E+003	6,8708205E-001	1,9972322E+000
4,214252295094630E+003	6,8700463E-001	1,9997739E+000
4,221952295001407E+003	6,8707198E-001	1,9991385E+000
4,229652294908185E+003	6,8708223E-001	2,0112119E+000
4,237352294814948E+003	6,8711156E-001	1,9934196E+000
4,245052294721725E+003	6,8711656E-001	2,0048575E+000
4,252752294628503E+003	6,8720084E-001	2,0048575E+000
4,260452294535280E+003	6,8704426E-001	2,0010448E+000
4,268152294442058E+003	6,8711978E-001	1,9985032E+000
4,275852294348821E+003	6,8707877E-001	2,0035865E+000
4,283552294255598E+003	6,8715727E-001	2,0035865E+000
4,291252294162376E+003	6,8701500E-001	1,9972322E+000
4,298952294069153E+003	6,8704396E-001	1,9921488E+000
4,306652293975931E+003	6,8728882E-001	2,0048575E+000
4,314352293882694E+003	6,8707007E-001	1,9991385E+000
4,322052293789471E+003	6,8716103E-001	2,0048575E+000
4,329752293696249E+003	6,8719018E-001	2,0029511E+000
4,337452293603026E+003	6,8730968E-001	1,9965969E+000
4,345152293509804E+003	6,8714964E-001	2,0035865E+000
4,352852293416567E+003	6,8716580E-001	2,0035865E+000
4,360552293323344E+003	6,8718624E-001	1,9991385E+000
4,368252293230122E+003	6,8721402E-001	2,0029511E+000
4,375952293136899E+003	6,8714952E-001	2,0010448E+000
4,383652293043677E+003	6,8707174E-001	1,9959613E+000
4,391352292950440E+003	6,8711913E-001	2,0099409E+000
4,399052292857217E+003	6,8709338E-001	1,9972322E+000
4,406752292763995E+003	6,8719453E-001	2,0073991E+000
4,414452292670772E+003	6,8719554E-001	2,0042222E+000
4,422152292577550E+003	6,8717146E-001	2,0004094E+000
4,429852292484313E+003	6,8720174E-001	2,0023158E+000
4,437552292391090E+003	6,8715185E-001	2,0016801E+000
4,445252292297868E+003	6,8729216E-001	1,9889716E+000
4,452952292204645E+003	6,8722898E-001	1,9991385E+000
4,460652292111423E+003	6,8728900E-001	1,9985032E+000
4,468352292018186E+003	6,8726104E-001	1,9997739E+000
4,476052291924963E+003	6,8722588E-001	2,0054927E+000
4,483752291831741E+003	6,8732411E-001	2,0073991E+000
4,491452291738518E+003	6,8711776E-001	2,0054927E+000
4,499152291645296E+003	6,8727821E-001	1,9985032E+000
4,506852291552059E+003	6,8729383E-001	2,0073991E+000
4,514552291458836E+003	6,8714869E-001	2,0048575E+000
4,522252291365614E+003	6,8723112E-001	2,0029511E+000
4,529952291272391E+003	6,8718195E-001	2,0067637E+000
4,537652291179169E+003	6,8713969E-001	1,9959613E+000
4,545352291085932E+003	6,8715799E-001	2,0035865E+000
4,553052290992709E+003	6,8701595E-001	1,9953259E+000
4,560752290899487E+003	6,8723071E-001	2,0004094E+000
4,568452290806265E+003	6,8714809E-001	1,9978676E+000
4,576152290713042E+003	6,8729800E-001	1,9946904E+000
4,583852290619805E+003	6,8713087E-001	1,9946904E+000
4,591552290526583E+003	6,8722808E-001	1,9934196E+000
4,599252290433360E+003	6,8712336E-001	1,9991385E+000
4,606952290340138E+003	6,8708086E-001	1,9965969E+000
4,614652290246915E+003	6,8712211E-001	1,9959613E+000
4,622352290153678E+003	6,8717200E-001	2,0061283E+000
4,630052290060456E+003	6,8717194E-001	2,0048575E+000
4,637752289967233E+003	6,8721640E-001	2,0086701E+000
4,645452289874011E+003	6,8723094E-001	1,9959613E+000
4,653152289780788E+003	6,8733191E-001	2,0061283E+000
4,660852289687551E+003	6,8711084E-001	2,0048575E+000
4,668552289594329E+003	6,8717515E-001	2,0086701E+000
4,676252289501106E+003	6,8729955E-001	2,0042222E+000
4,683952289407884E+003	6,8713701E-001	1,9991385E+000
4,691652289314661E+003	6,8712598E-001	2,0029511E+000
4,699352289221424E+003	6,8717909E-001	1,9953259E+000
4,707052289128202E+003	6,8714052E-001	2,0054927E+000
4,714752289034979E+003	6,8708760E-001	2,0010448E+000
4,722452288941757E+003	6,8718493E-001	1,9991385E+000
4,730152288848534E+003	6,8727201E-001	2,0029511E+000
4,737852288755297E+003	6,8732589E-001	1,9972322E+000
4,745552288662075E+003	6,8721640E-001	1,9978676E+000
4,753252288568852E+003	6,8719143E-001	1,9985032E+000
4,760952288475630E+003	6,8718171E-001	1,9978676E+000
4,768652288382407E+003	6,8725431E-001	1,9959613E+000
4,776352288289170E+003	6,8727010E-001	1,9959613E+000
4,784052288195948E+003	6,8712455E-001	2,0061283E+000
4,791752288102725E+003	6,8714547E-001	1,9959613E+000
4,799452288009503E+003	6,8722349E-001	2,0099409E+000
4,807152287916280E+003	6,8710172E-001	2,0004094E+000
4,814852287823043E+003	6,8714577E-001	1,9972322E+000
4,822552287729821E+003	6,8716365E-001	2,0029511E+000
4,830252287636598E+003	6,8708992E-001	1,9953259E+000
4,837952287543376E+003	6,8713385E-001	1,9997739E+000
4,845652287450153E+003	6,8729347E-001	1,9991385E+000
4,853352287356916E+003	6,8714261E-001	1,9927841E+000
4,861052287263694E+003	6,8711311E-001	2,0137534E+000
4,868752287170471E+003	6,8719798E-001	1,9946904E+000
4,876452287077249E+003	6,8711060E-001	2,0035865E+000
4,884152286984026E+003	6,8740845E-001	2,0118473E+000
4,891852286890789E+003	6,8719280E-001	2,0035865E+000
4,899552286797567E+003	6,8704450E-001	1,9985032E+000
4,907252286704344E+003	6,8711627E-001	2,0035865E+000
4,914952286611122E+003	6,8722367E-001	1,9959613E+000
4,922652286517899E+003	6,8724209E-001	2,0124826E+000
4,930352286424662E+003	6,8719161E-001	2,0016801E+000
4,938052286331440E+003	6,8713295E-001	2,0010448E+000
4,945752286238217E+003	6,8701458E-001	2,0035865E+000
4,953452286144995E+003	6,8716514E-001	1,9985032E+000
4,961152286051773E+003	6,8721712E-001	1,9978676E+000
4,968852285958536E+003	6,8711770E-001	1,9953259E+000
4,976552285865313E+003	6,8701768E-001	1,9959613E+000
4,984252285772091E+003	6,8712461E-001	2,0004094E+000
4,991952285678868E+003	6,8713760E-001	2,0035865E+000
4,999652285585646E+003	6,8729228E-001	1,9959613E+000
5,007352285492409E+003	6,8704683E-001	2,0016801E+000
5,015052285399186E+003	6,8721324E-001	2,0099409E+000
5,022752285305964E+003	6,8716621E-001	2,0042222E+000
5,030452285212741E+003	6,8715322E-001	2,0035865E+000
5,038152285119519E+003	6,8718076E-001	2,0061283E+000
5,045852285026282E+003	6,8710232E-001	1,9997739E+000
5,053552284933059E+003	6,8724275E-001	2,0023158E+000
5,061252284839837E+003	6,8702281E-001	1,9991385E+000
5,068952284746614E+003	6,8715513E-001	1,9997739E+000
5,076652284653392E+003	6,8725801E-001	2,0010448E+000
5,084352284560155E+003	6,8710631E-001	1,9953259E+000
5,092052284466932E+003	6,8710631E-001	2,0004094E+000
5,099752284373710E+003	6,8707007E-001	2,0004094E+000
5,107452284280487E+003	6,8712902E-001	2,0004094E+000
5,115152284187265E+003	6,8730360E-001	2,0016801E+000
5,122852284094028E+003	6,8707782E-001	2,0061283E+000
5,130552284000805E+003	6,8713081E-001	1,9972322E+000
5,138252283907583E+003	6,8717694E-001	2,0048575E+000
5,145952283814360E+003	6,8713719E-001	1,9997739E+000
5,153652283721138E+003	6,8715519E-001	2,0093055E+000
5,161352283627901E+003	6,8711436E-001	2,0048575E+000
5,169052283534678E+003	6,8711621E-001	2,0010448E+000
5,176752283441456E+003	6,8720287E-001	2,0035865E+000
5,184452283348233E+003	6,8705559E-001	1,9985032E+000
5,192152283255011E+003	6,8713409E-001	1,9978676E+000
5,199852283161774E+003	6,8707454E-001	2,0016801E+000
5,207552283068551E+003	6,8724257E-001	1,9972322E+000
5,215252282975329E+003	6,8717873E-001	1,9953259E+000
5,222952282882106E+003	6,8706787E-001	1,9985032E+000
5,230652282788884E+003	6,8714803E-001	2,0016801E+000
5,238352282695647E+003	6,8721908E-001	2,0035865E+000
5,246052282602424E+003	6,8711746E-001	2,0099409E+000
5,253752282509202E+003	6,8708616E-001	2,0004094E+000
5,261452282415979E+003	6,8715519E-001	2,0035865E+000
5,269152282322757E+003	6,8718547E-001	2,0029511E+000
5,276852282229520E+003	6,8704104E-001	2,0073991E+000
5,284552282136297E+003	6,8709451E-001	1,9978676E+000
5,292252282043075E+003	6,8708104E-001	1,9997739E+000
5,299952281949852E+003	6,8713421E-001	2,0004094E+000
5,307652281856630E+003	6,8713164E-001	2,0054927E+000
5,315352281763393E+003	6,8715250E-001	2,0105762E+000
5,323052281670170E+003	6,8701959E-001	2,0010448E+000
5,330752281576948E+003	6,8715066E-001	1,9953259E+000
5,338452281483726E+003	6,8717337E-001	1,9940550E+000
5,346152281390503E+003	6,8709201E-001	1,9997739E+000
5,353852281297266E+003	6,8723971E-001	1,9946904E+000
5,361552281204044E+003	6,8708974E-001	1,9965969E+000
5,369252281110821E+003	6,8701667E-001	1,9972322E+000
5,376952281017599E+003	6,8714488E-001	1,9953259E+000
5,384652280924376E+003	6,8712354E-001	2,0004094E+000
5,392352280831139E+003	6,8702185E-001	1,9908779E+000
5,400052280737917E+003	6,8714696E-001	2,0054927E+000
5,407752280644694E+003	6,8711066E-001	2,0035865E+000
5,415452280551472E+003	6,8708193E-001	2,0035865E+000
5,423152280458249E+003	6,8718112E-001	1,9985032E+000
5,430852280365012E+003	6,8720496E-001	2,0023158E+000
5,438552280271790E+003	6,8720037E-001	1,9985032E+000
5,446252280178567E+003	6,8704349E-001	2,0061283E+000
5,453952280085345E+003	6,8710738E-001	2,0035865E+000
5,461652279992122E+003	6,8704379E-001	2,0067637E+000
5,469352279898885E+003	6,8699169E-001	1,9978676E+000
5,477052279805663E+003	6,8692553E-001	1,9946904E+000
5,484752279712440E+003	6,8711984E-001	2,0035865E+000
5,492452279619218E+003	6,8718195E-001	2,0016801E+000
5,500152279525995E+003	6,8722248E-001	1,9965969E+000
5,507852279432758E+003	6,8712819E-001	1,9965969E+000
5,515552279339536E+003	6,8720686E-001	2,0067637E+000
5,523252279246313E+003	6,8697768E-001	1,9972322E+000
5,530952279153091E+003	6,8687892E-001	1,9978676E+000
5,538652279059868E+003	6,8706363E-001	1,9953259E+000
5,546352278966631E+003	6,8701768E-001	1,9978676E+000
5,554052278873409E+003	6,8713886E-001	1,9997739E+000
5,561752278780186E+003	6,8702894E-001	2,0004094E+000
5,569452278686964E+003	6,8711853E-001	2,0112119E+000
5,577152278593741E+003	6,8704444E-001	2,0054927E+000
5,584852278500504E+003	6,8704236E-001	1,9985032E+000
5,592552278407282E+003	6,8711543E-001	1,9991385E+000
5,600252278314059E+003	6,8705654E-001	1,9978676E+000
5,607952278220837E+003	6,8698215E-001	1,9965969E+000
5,615652278127614E+003	6,8699747E-001	2,0042222E+000
5,623352278034377E+003	6,8706059E-001	2,0042222E+000
5,631052277941155E+003	6,8718421E-001	2,0010448E+000
5,638752277847932E+003	6,8703848E-001	2,0029511E+000
5,646452277754710E+003	6,8695509E-001	2,0048575E+000
5,654152277661487E+003	6,8702894E-001	1,9908779E+000
5,661852277568250E+003	6,8697059E-001	2,0016801E+000
5,669552277475028E+003	6,8708807E-001	2,0010448E+000
5,677252277381805E+003	6,8693250E-001	1,9978676E+000
5,684952277288583E+003	6,8694085E-001	2,0004094E+000
5,692652277195361E+003	6,8699551E-001	1,9946904E+000
5,700352277102123E+003	6,8697834E-001	1,9991385E+000
5,708052277008901E+003	6,8688226E-001	2,0086701E+000
5,715752276915679E+003	6,8693119E-001	1,9978676E+000
5,723452276822456E+003	6,8698227E-001	2,0048575E+000
5,731152276729234E+003	6,8700886E-001	1,9946904E+000
5,738852276635997E+003	6,8698567E-001	1,9965969E+000
5,746552276542774E+003	6,8686152E-001	1,9972322E+000
5,754252276449552E+003	6,8694448E-001	1,9946904E+000
5,761952276356329E+003	6,8707776E-001	2,0010448E+000
5,769652276263107E+003	6,8693089E-001	1,9946904E+000
5,777352276169870E+003	6,8692058E-001	2,0016801E+000
5,785052276076647E+003	6,8700862E-001	1,9972322E+000
5,792752275983425E+003	6,8693727E-001	1,9978676E+000
5,800452275890202E+003	6,8700761E-001	1,9978676E+000
5,808152275796980E+003	6,8720770E-001	2,0054927E+000
5,815852275703743E+003	6,8684107E-001	1,9940550E+000
5,823552275610520E+003	6,8688852E-001	2,0004094E+000
5,831252275517298E+003	6,8700004E-001	2,0048575E+000
5,838952275424075E+003	6,8689531E-001	2,0029511E+000
5,846652275330853E+003	6,8701583E-001	2,0010448E+000
5,854352275237616E+003	6,8700248E-001	1,9965969E+000
5,862052275144393E+003	6,8695080E-001	1,9997739E+000
5,869752275051171E+003	6,8686181E-001	2,0042222E+000
5,877452274957948E+003	6,8697923E-001	2,0023158E+000
5,885152274864726E+003	6,8703359E-001	1,9946904E+000
5,892852274771489E+003	6,8699533E-001	2,0042222E+000
5,900552274678266E+003	6,8695688E-001	1,9959613E+000
5,908252274585044E+003	6,8692166E-001	1,9959613E+000
5,915952274491821E+003	6,8689275E-001	2,0004094E+000
5,923652274398599E+003	6,8690515E-001	2,0061283E+000
5,931352274305362E+003	6,8703103E-001	2,0061283E+000
5,939052274212139E+003	6,8690962E-001	2,0042222E+000
5,946752274118917E+003	6,8697900E-001	2,0042222E+000
5,954452274025694E+003	6,8692720E-001	2,0054927E+000
5,962152273932472E+003	6,8687707E-001	1,9946904E+000
5,969852273839235E+003	6,8690753E-001	1,9896070E+000
5,977552273746012E+003	6,8689382E-001	1,9940550E+000
5,985252273652790E+003	6,8691128E-001	2,0067637E+000
5,992952273559567E+003	6,8689388E-001	2,0042222E+000
6,000652273466345E+003	6,8691874E-001	1,9978676E+000
6,008352273373108E+003	6,8688399E-001	1,9965969E+000
6,016052273279885E+003	6,8700582E-001	2,0054927E+000
6,023752273186663E+003	6,8688369E-001	1,9959613E+000
6,031452273093440E+003	6,8702000E-001	2,0016801E+000
6,039152273000218E+003	6,8690306E-001	2,0035865E+000
6,046852272906981E+003	6,8686604E-001	1,9959613E+000
6,054552272813758E+003	6,8688446E-001	2,0042222E+000
6,062252272720536E+003	6,8686998E-001	2,0023158E+000
6,069952272627314E+003	6,8685424E-001	1,9965969E+000
6,077652272534091E+003	6,8696219E-001	2,0023158E+000
6,085352272440854E+003	6,8691361E-001	1,9991385E+000
6,093052272347632E+003	6,8675250E-001	1,9985032E+000
6,100752272254409E+003	6,8685353E-001	2,0029511E+000
6,108452272161187E+003	6,8682849E-001	2,0035865E+000
6,116152272067964E+003	6,8682849E-001	1,9959613E+000
6,123852271974727E+003	6,8683875E-001	1,9934196E+000
6,131552271881505E+003	6,8680626E-001	1,9978676E+000
6,139252271788282E+003	6,8679774E-001	2,0029511E+000
6,146952271695060E+003	6,8689650E-001	1,9927841E+000
6,154652271601837E+003	6,8692356E-001	2,0023158E+000
6,162352271508600E+003	6,8684810E-001	2,0004094E+000
6,170052271415378E+003	6,8681079E-001	1,9940550E+000
6,177752271322155E+003	6,8682253E-001	1,9978676E+000
6,185452271228933E+003	6,8676716E-001	1,9972322E+000
6,193152271135710E+003	6,8675882E-001	1,9997739E+000
6,200852271042473E+003	6,8683988E-001	1,9985032E+000
6,208552270949251E+003	6,8685108E-001	2,0067637E+000
6,216252270856028E+003	6,8666768E-001	2,0054927E+000
6,223952270762806E+003	6,8683320E-001	1,9997739E+000
6,231652270669583E+003	6,8682539E-001	1,9902425E+000
6,239352270576346E+003	6,8671727E-001	2,0054927E+000
6,247052270483124E+003	6,8682641E-001	2,0016801E+000
6,254752270389901E+003	6,8678075E-001	1,9927841E+000
6,262452270296679E+003	6,8669909E-001	1,9972322E+000
6,270152270203456E+003	6,8684161E-001	2,0023158E+000
6,277852270110219E+003	6,8678665E-001	2,0042222E+000
6,285552270016997E+003	6,8671560E-001	1,9972322E+000
6,293252269923774E+003	6,8681097E-001	1,9972322E+000
6,300952269830552E+003	6,8670774E-001	2,0035865E+000
6,308652269737329E+003	6,8670171E-001	1,9978676E+000
6,316352269644092E+003	6,8681300E-001	1,9921488E+000
6,324052269550870E+003	6,8672442E-001	1,9997739E+000
6,331752269457647E+003	6,8674242E-001	2,0023158E+000
6,339452269364425E+003	6,8675745E-001	2,0042222E+000
6,347152269271202E+003	6,8674421E-001	1,9940550E+000
6,354852269177965E+003	6,8674600E-001	2,0029511E+000
6,362552269084743E+003	6,8682313E-001	1,9953259E+000
6,370252268991520E+003	6,8679237E-001	2,0029511E+000
6,377952268898298E+003	6,8668026E-001	1,9934196E+000
6,385652268805075E+003	6,8686098E-001	1,9997739E+000
6,393352268711838E+003	6,8682200E-001	2,0054927E+000
6,401052268618616E+003	6,8680841E-001	1,9959613E+000
6,408752268525393E+003	6,8668985E-001	1,9991385E+000
6,416452268432171E+003	6,8668944E-001	2,0048575E+000
6,424152268338948E+003	6,8671590E-001	2,0023158E+000
6,431852268245711E+003	6,8679363E-001	1,9991385E+000
6,439552268152489E+003	6,8672854E-001	1,9985032E+000
6,447252268059267E+003	6,8668538E-001	2,0054927E+000
6,454952267966044E+003	6,8671417E-001	2,0004094E+000
6,462652267872822E+003	6,8668628E-001	2,0054927E+000
6,470352267779585E+003	6,8672001E-001	1,9997739E+000
6,478052267686362E+003	6,8656325E-001	2,0004094E+000
6,485752267593140E+003	6,8677193E-001	1,9896070E+000
6,493452267499917E+003	6,8676341E-001	1,9959613E+000
6,501152267406695E+003	6,8663228E-001	2,0042222E+000
6,508852267313458E+003	6,8676257E-001	2,0004094E+000
6,516552267220235E+003	6,8657213E-001	2,0029511E+000
6,524252267127013E+003	6,8664116E-001	2,0156598E+000
6,531952267033790E+003	6,8676627E-001	1,9985032E+000
6,539652266940568E+003	6,8663096E-001	1,9953259E+000
6,547352266847331E+003	6,8671942E-001	2,0061283E+000
6,555052266754108E+003	6,8693060E-001	2,0023158E+000
6,562752266660886E+003	6,8673438E-001	2,0042222E+000
6,570452266567663E+003	6,8672508E-001	1,9972322E+000
6,578152266474441E+003	6,8672341E-001	2,0010448E+000
6,585852266381204E+003	6,8661672E-001	1,9991385E+000
6,593552266287981E+003	6,8670166E-001	2,0048575E+000
6,601252266194759E+003	6,8680531E-001	1,9946904E+000
6,608952266101536E+003	6,8674272E-001	2,0023158E+000
6,616652266008314E+003	6,8662846E-001	2,0004094E+000
6,624352265915077E+003	6,8679368E-001	1,9978676E+000
6,632052265821854E+003	6,8669081E-001	1,9997739E+000
6,639752265728632E+003	6,8676156E-001	2,0029511E+000
6,647452265635409E+003	6,8677366E-001	2,0010448E+000
6,655152265542187E+003	6,8662947E-001	2,0073991E+000
6,662852265448950E+003	6,8671638E-001	2,0054927E+000
6,670552265355727E+003	6,8663436E-001	2,0061283E+000
6,678252265262505E+003	6,8665916E-001	2,0004094E+000
6,685952265169282E+003	6,8667644E-001	1,9889716E+000
6,693652265076060E+003	6,8670130E-001	1,9991385E+000
6,701352264982823E+003	6,8679053E-001	1,9940550E+000
6,709052264889600E+003	6,8658465E-001	2,0067637E+000
6,716752264796378E+003	6,8680257E-001	2,0010448E+000
6,724452264703155E+003	6,8671447E-001	1,9965969E+000
6,732152264609933E+003	6,8648952E-001	1,9991385E+000
6,739852264516696E+003	6,8667161E-001	2,0004094E+000
6,747552264423473E+003	6,8663442E-001	2,0035865E+000
6,755252264330251E+003	6,8678266E-001	1,9883362E+000
6,762952264237028E+003	6,8657601E-001	1,9921488E+000
6,770652264143806E+003	6,8660939E-001	1,9965969E+000
6,778352264050569E+003	6,8659085E-001	1,9997739E+000
6,786052263957346E+003	6,8651783E-001	2,0004094E+000
6,793752263864124E+003	6,8655485E-001	1,9978676E+000
6,801452263770901E+003	6,8663746E-001	1,9921488E+000
6,809152263677679E+003	6,8661058E-001	2,0004094E+000
6,816852263584442E+003	6,8678224E-001	1,9997739E+000
6,824552263491219E+003	6,8672276E-001	2,0035865E+000
6,832252263397997E+003	6,8656099E-001	1,9915133E+000
6,839952263304775E+003	6,8670541E-001	1,9991385E+000
6,847652263211552E+003	6,8660259E-001	1,9953259E+000
6,855352263118315E+003	6,8665284E-001	2,0035865E+000
6,863052263025093E+003	6,8657959E-001	1,9972322E+000
6,870752262931870E+003	6,8667126E-001	1,9997739E+000
6,878452262838648E+003	6,8663973E-001	1,9985032E+000
6,886152262745425E+003	6,8653727E-001	2,0023158E+000
6,893852262652188E+003	6,8649429E-001	2,0035865E+000
6,901552262558966E+003	6,8653899E-001	1,9985032E+000
6,909252262465743E+003	6,8655187E-001	2,0080347E+000
6,916952262372521E+003	6,8660659E-001	1,9978676E+000
6,924652262279298E+003	6,8663043E-001	2,0118473E+000
6,932352262186061E+003	6,8649137E-001	2,0004094E+000
6,940052262092839E+003	6,8653786E-001	2,0073991E+000
6,947752261999616E+003	6,8664700E-001	1,9959613E+000
6,955452261906394E+003	6,8653494E-001	2,0010448E+000
6,963152261813171E+003	6,8658727E-001	1,9972322E+000
6,970852261719934E+003	6,8659717E-001	1,9997739E+000
6,978552261626712E+003	6,8669784E-001	2,0093055E+000
6,986252261533489E+003	6,8664330E-001	1,9978676E+000
6,993952261440267E+003	6,8660694E-001	2,0042222E+000
7,001652261347044E+003	6,8650222E-001	1,9997739E+000
7,009352261253807E+003	6,8651253E-001	2,0054927E+000
7,017052261160585E+003	6,8651229E-001	1,9965969E+000
7,024752261067362E+003	6,8648428E-001	2,0099409E+000
7,032452260974140E+003	6,8655497E-001	2,0004094E+000
7,040152260880917E+003	6,8645757E-001	2,0004094E+000
7,047852260787680E+003	6,8667573E-001	2,0016801E+000
7,055552260694458E+003	6,8655723E-001	2,0010448E+000
7,063252260601235E+003	6,8645757E-001	1,9965969E+000
7,070952260508013E+003	6,8646991E-001	2,0035865E+000
7,078652260414790E+003	6,8657613E-001	2,0067637E+000
7,086352260321553E+003	6,8640906E-001	1,9991385E+000
7,094052260228331E+003	6,8649000E-001	1,9902425E+000
7,101752260135108E+003	6,8652868E-001	1,9934196E+000
7,109452260041886E+003	6,8648887E-001	1,9946904E+000
7,117152259948663E+003	6,8650144E-001	1,9985032E+000
7,124852259855426E+003	6,8642008E-001	2,0016801E+000
7,132552259762204E+003	6,8654394E-001	2,0086701E+000
7,140252259668981E+003	6,8650031E-001	1,9921488E+000
7,147952259575759E+003	6,8656886E-001	2,0048575E+000
7,155652259482536E+003	6,8645233E-001	2,0073991E+000
7,163352259389299E+003	6,8639559E-001	2,0023158E+000
7,171052259296077E+003	6,8653214E-001	1,9965969E+000
7,178752259202854E+003	6,8642247E-001	1,9972322E+000
7,186452259109632E+003	6,8643463E-001	2,0004094E+000
7,194152259016410E+003	6,8651259E-001	1,9978676E+000
7,201852258923172E+003	6,8656087E-001	2,0004094E+000
7,209552258829950E+003	6,8640500E-001	2,0054927E+000
7,210052258823896E+003	6,8643290E-001	2,0048575E+000