File: fig_6_polarization_curves/Activity_1/CeO2_Activity_1.txt
Ewe/V	<I>/mA	cycle number
-4,1827065E-005	-5,754450708627701E-002	1,000000000000000E+000
2,4789330E-003	-1,083273328750979E-002	1,000000000000000E+000
5,4828217E-003	-7,709146197066960E-003	1,000000000000000E+000
8,4539317E-003	-6,292344011790928E-003	1,000000000000000E+000
1,1511834E-002	-5,416762117096380E-003	1,000000000000000E+000
1,4438209E-002	-4,783705796838113E-003	1,000000000000000E+000
1,7700849E-002	-4,293713125587378E-003	1,000000000000000E+000
2,0670028E-002	-3,909501149105279E-003	1,000000000000000E+000
2,3669671E-002	-3,608863511672632E-003	1,000000000000000E+000
2,6723467E-002	-3,345238361502356E-003	1,000000000000000E+000
2,9731600E-002	-3,108239391290152E-003	1,000000000000000E+000
3,2701507E-002	-2,922486998141471E-003	1,000000000000000E+000
3,5771232E-002	-2,745906601992834E-003	1,000000000000000E+000
3,8711410E-002	-2,573405471579582E-003	1,000000000000000E+000
4,1732289E-002	-2,432402281044813E-003	1,000000000000000E+000
4,4687331E-002	-2,310346347932401E-003	1,000000000000000E+000
4,7713514E-002	-2,180994463451744E-003	1,000000000000000E+000
5,0730146E-002	-2,071365508861481E-003	1,000000000000000E+000
5,3695813E-002	-1,973419490810428E-003	1,000000000000000E+000
5,6695446E-002	-1,873593130451868E-003	1,000000000000000E+000
5,9713144E-002	-1,789639122776743E-003	1,000000000000000E+000
6,2684119E-002	-1,700424173381711E-003	1,000000000000000E+000
6,5730430E-002	-1,622203019984831E-003	1,000000000000000E+000
6,8653665E-002	-1,550386788375917E-003	1,000000000000000E+000
7,1657553E-002	-1,486009385944214E-003	1,000000000000000E+000
7,4707098E-002	-1,421268728812548E-003	1,000000000000000E+000
7,7721603E-002	-1,356418093378959E-003	1,000000000000000E+000
8,0702141E-002	-1,301463794319828E-003	1,000000000000000E+000
8,3686918E-002	-1,239028440750706E-003	1,000000000000000E+000
8,6741768E-002	-1,187070883350409E-003	1,000000000000000E+000
8,9723356E-002	-1,137109590290946E-003	1,000000000000000E+000
9,2746362E-002	-1,092066948727162E-003	1,000000000000000E+000
9,5690787E-002	-1,044627161415213E-003	1,000000000000000E+000
9,8674484E-002	-1,001840545002929E-003	1,000000000000000E+000
1,0172298E-001	-9,629765890726482E-004	1,000000000000000E+000
1,0467166E-001	-9,259517191780708E-004	1,000000000000000E+000
1,0770634E-001	-8,906742596061449E-004	1,000000000000000E+000
1,1069218E-001	-8,523542521717605E-004	1,000000000000000E+000
1,1368147E-001	-8,191594115838155E-004	1,000000000000000E+000
1,1665216E-001	-7,839133864359221E-004	1,000000000000000E+000
1,1967836E-001	-7,564048848091229E-004	1,000000000000000E+000
1,2266706E-001	-7,293664801450179E-004	1,000000000000000E+000
1,2566066E-001	-6,950340453746042E-004	1,000000000000000E+000
1,2872612E-001	-6,708189188442369E-004	1,000000000000000E+000
1,3166630E-001	-6,430729805873819E-004	1,000000000000000E+000
1,3467549E-001	-6,136404178614758E-004	1,000000000000000E+000
1,3760504E-001	-5,890193120059346E-004	1,000000000000000E+000
1,4067054E-001	-5,628640844206542E-004	1,000000000000000E+000
1,4363620E-001	-5,297857632927121E-004	1,000000000000000E+000
1,4670804E-001	-5,143311113907966E-004	1,000000000000000E+000
1,4968114E-001	-4,914498827298403E-004	1,000000000000000E+000
1,5268077E-001	-4,631275782325511E-004	1,000000000000000E+000
1,5567511E-001	-4,420232036117487E-004	1,000000000000000E+000
1,5865245E-001	-4,227042548846042E-004	1,000000000000000E+000
1,6168076E-001	-4,061708205962021E-004	1,000000000000000E+000
1,6470377E-001	-3,825339041778823E-004	1,000000000000000E+000
1,6767155E-001	-3,655375689763408E-004	1,000000000000000E+000
1,7070848E-001	-3,389185927943818E-004	1,000000000000000E+000
1,7372072E-001	-3,221979086694862E-004	1,000000000000000E+000
1,7668532E-001	-3,011493245139712E-004	1,000000000000000E+000
1,7967755E-001	-2,888992702312710E-004	1,000000000000000E+000
1,8269207E-001	-2,657392433712479E-004	1,000000000000000E+000
1,8564817E-001	-2,504447106431319E-004	1,000000000000000E+000
1,8866478E-001	-2,285835899472300E-004	1,000000000000000E+000
1,9168250E-001	-2,125675009294207E-004	1,000000000000000E+000
1,9467150E-001	-1,967199635511280E-004	1,000000000000000E+000
1,9762866E-001	-1,935461857602624E-004	1,000000000000000E+000
2,0063786E-001	-1,733213711069303E-004	1,000000000000000E+000
2,0367041E-001	-1,550366313693018E-004	1,000000000000000E+000
2,0663184E-001	-1,485716740475883E-004	1,000000000000000E+000
2,0959431E-001	-1,317488901506280E-004	1,000000000000000E+000
2,1264915E-001	-1,137907625768239E-004	1,000000000000000E+000
2,1571039E-001	-1,151319231224243E-004	1,000000000000000E+000
2,1864551E-001	-9,990615540753610E-005	1,000000000000000E+000
2,2169799E-001	-8,339757898537989E-005	1,000000000000000E+000
2,2464350E-001	-7,657941236671002E-005	1,000000000000000E+000
2,2768323E-001	-6,410674559325119E-005	1,000000000000000E+000
2,3071073E-001	-5,554798677242796E-005	1,000000000000000E+000
2,3363072E-001	-4,120838577123455E-005	1,000000000000000E+000
2,3663250E-001	-3,084946349139913E-005	1,000000000000000E+000
2,3966716E-001	-2,175681712816759E-005	1,000000000000000E+000
2,4271990E-001	-4,346937505530254E-006	1,000000000000000E+000
2,4568240E-001	5,237803786768634E-006	1,000000000000000E+000
2,4870431E-001	1,528739947366493E-005	1,000000000000000E+000
2,5164768E-001	2,882549902321068E-005	1,000000000000000E+000
2,5467813E-001	2,846039144689937E-005	1,000000000000000E+000
2,5766927E-001	4,682801010887755E-005	1,000000000000000E+000
2,6062641E-001	5,581989811136932E-005	1,000000000000000E+000
2,6362604E-001	5,286594056517558E-005	1,000000000000000E+000
2,6666924E-001	6,582170957435444E-005	1,000000000000000E+000
2,6971138E-001	7,699726827778751E-005	1,000000000000000E+000
2,7268341E-001	7,931808010212116E-005	1,000000000000000E+000
2,7564356E-001	8,456434973801294E-005	1,000000000000000E+000
2,7867526E-001	9,943781218330354E-005	1,000000000000000E+000
2,8167167E-001	9,929136984180575E-005	1,000000000000000E+000
2,8460869E-001	1,029219957038806E-004	1,000000000000000E+000
2,8772193E-001	1,113367424787600E-004	1,000000000000000E+000
2,9061541E-001	1,101782078189288E-004	1,000000000000000E+000
2,9364160E-001	1,184173914009247E-004	1,000000000000000E+000
2,9667419E-001	1,226416647038658E-004	1,000000000000000E+000
2,9956654E-001	1,268052454428636E-004	1,000000000000000E+000
3,0263838E-001	1,360295708907717E-004	1,000000000000000E+000
3,0568475E-001	1,436136995228523E-004	1,000000000000000E+000
3,0867061E-001	1,423572198098024E-004	1,000000000000000E+000
3,1168193E-001	1,489117388909129E-004	1,000000000000000E+000
3,1461045E-001	1,583341232821717E-004	1,000000000000000E+000
3,1762066E-001	1,545462285634424E-004	1,000000000000000E+000
3,2063836E-001	1,583578315413519E-004	1,000000000000000E+000
3,2366502E-001	1,625789122467940E-004	1,000000000000000E+000
3,2662702E-001	1,589834678350469E-004	1,000000000000000E+000
3,2961819E-001	1,654091463063464E-004	1,000000000000000E+000
3,3263680E-001	1,680937722935069E-004	1,000000000000000E+000
3,3564827E-001	1,764175627655198E-004	1,000000000000000E+000
3,3863515E-001	1,734063180717782E-004	1,000000000000000E+000
3,4164858E-001	1,803532722134873E-004	1,000000000000000E+000
3,4469283E-001	1,845045409219342E-004	1,000000000000000E+000
3,4762770E-001	1,865878796068238E-004	1,000000000000000E+000
3,5063690E-001	2,012678614457231E-004	1,000000000000000E+000
3,5365465E-001	1,994821065173642E-004	1,000000000000000E+000
3,5662982E-001	2,088231797791437E-004	1,000000000000000E+000
3,5965919E-001	2,092055855605398E-004	1,000000000000000E+000
3,6261848E-001	2,169123677661622E-004	1,000000000000000E+000
3,6562666E-001	2,255281247641825E-004	1,000000000000000E+000
3,6868358E-001	2,267189402212769E-004	1,000000000000000E+000
3,7166414E-001	2,382927561222475E-004	1,000000000000000E+000
3,7464890E-001	2,440374368504989E-004	1,000000000000000E+000
3,7760076E-001	2,559137865843527E-004	1,000000000000000E+000
3,8063651E-001	2,682743658490296E-004	1,000000000000000E+000
3,8364676E-001	2,740400442112858E-004	1,000000000000000E+000
3,8663256E-001	2,809563838070137E-004	1,000000000000000E+000
3,8966197E-001	3,016893555311938E-004	1,000000000000000E+000
3,9266476E-001	3,063783521588847E-004	1,000000000000000E+000
3,9566442E-001	3,233894585859595E-004	1,000000000000000E+000
3,9868101E-001	3,361067457851121E-004	1,000000000000000E+000
4,0162227E-001	3,448829985779698E-004	1,000000000000000E+000
4,0458581E-001	3,618670766374990E-004	1,000000000000000E+000
4,0764278E-001	3,753001686428292E-004	1,000000000000000E+000
4,1062334E-001	3,921659138328712E-004	1,000000000000000E+000
4,1371533E-001	4,116699554354048E-004	1,000000000000000E+000
4,1665772E-001	4,371409960843608E-004	1,000000000000000E+000
4,1967323E-001	4,470625885863505E-004	1,000000000000000E+000
4,2264846E-001	4,829622670587579E-004	1,000000000000000E+000
4,2566296E-001	5,171908309330505E-004	1,000000000000000E+000
4,2863080E-001	5,492615678938596E-004	1,000000000000000E+000
4,3165696E-001	5,966628666849949E-004	1,000000000000000E+000
4,3467465E-001	6,491151793202978E-004	1,000000000000000E+000
4,3760380E-001	7,057092125014664E-004	1,000000000000000E+000
4,4065264E-001	7,780564171510872E-004	1,000000000000000E+000
4,4365442E-001	8,511745415702154E-004	1,000000000000000E+000
4,4660208E-001	9,577014287456571E-004	1,000000000000000E+000
4,4966647E-001	1,081581459165341E-003	1,000000000000000E+000
4,5264912E-001	1,251695939184809E-003	1,000000000000000E+000
4,5559457E-001	1,478844969568693E-003	1,000000000000000E+000
4,5861545E-001	1,752047708998899E-003	1,000000000000000E+000
4,6161515E-001	2,125045922405325E-003	1,000000000000000E+000
4,6465406E-001	2,577748890246701E-003	1,000000000000000E+000
4,6763346E-001	3,164808006603169E-003	1,000000000000000E+000
4,7061828E-001	3,981918402363546E-003	1,000000000000000E+000
4,7360837E-001	5,159793947540896E-003	1,000000000000000E+000
4,7657341E-001	6,821839357890547E-003	1,000000000000000E+000
4,7957903E-001	9,196575412810742E-003	1,000000000000000E+000
4,8271877E-001	1,300012918842253E-002	1,000000000000000E+000
4,8578840E-001	1,778788152178792E-002	1,000000000000000E+000
4,8877862E-001	2,421832500926338E-002	1,000000000000000E+000
4,9174109E-001	3,246539821420624E-002	1,000000000000000E+000
4,9468869E-001	4,255098473679819E-002	1,000000000000000E+000
4,9778816E-001	5,407759914271817E-002	1,000000000000000E+000
5,0075698E-001	6,653857824884690E-002	1,000000000000000E+000
5,0379163E-001	7,912667645848948E-002	1,000000000000000E+000
5,0673819E-001	9,075580378403014E-002	1,000000000000000E+000
5,0975484E-001	1,008037888506204E-001	1,000000000000000E+000
5,1283097E-001	1,090336339505993E-001	1,000000000000000E+000
5,1587731E-001	1,150560658361739E-001	1,000000000000000E+000
5,1885563E-001	1,191533582196350E-001	1,000000000000000E+000
5,2187550E-001	1,216131523673906E-001	1,000000000000000E+000
5,2487195E-001	1,222283624275219E-001	1,000000000000000E+000
5,2781427E-001	1,213956526596764E-001	1,000000000000000E+000
5,3084892E-001	1,195276628043542E-001	1,000000000000000E+000
5,3383702E-001	1,175110078810464E-001	1,000000000000000E+000
5,3688431E-001	1,157700470595906E-001	1,000000000000000E+000
5,3986275E-001	1,150080111984362E-001	1,000000000000000E+000
5,4283899E-001	1,154420887470632E-001	1,000000000000000E+000
5,4587156E-001	1,178619582850124E-001	1,000000000000000E+000
5,4886693E-001	1,223509987961929E-001	1,000000000000000E+000
5,5185813E-001	1,290404466001942E-001	1,000000000000000E+000
5,5486619E-001	1,379142880805111E-001	1,000000000000000E+000
5,5786800E-001	1,488478354837266E-001	1,000000000000000E+000
5,6081134E-001	1,618544939776583E-001	1,000000000000000E+000
5,6380045E-001	1,767659637582855E-001	1,000000000000000E+000
5,6684786E-001	1,935466579246059E-001	1,000000000000000E+000
5,6987929E-001	2,124777811742042E-001	1,000000000000000E+000
5,7283646E-001	2,339961557710322E-001	1,000000000000000E+000
5,7587010E-001	2,581587768711004E-001	1,000000000000000E+000
5,7884532E-001	2,852033978822273E-001	1,000000000000000E+000
5,8181989E-001	3,149704313474593E-001	1,000000000000000E+000
5,8483613E-001	3,484054679629693E-001	1,000000000000000E+000
5,8777946E-001	3,848230226658063E-001	1,000000000000000E+000
5,9081811E-001	4,247870650506318E-001	1,000000000000000E+000
5,9382761E-001	4,685280557527598E-001	1,000000000000000E+000
5,9680605E-001	5,156747223323634E-001	1,000000000000000E+000
5,9983855E-001	5,672659931404520E-001	1,000000000000000E+000
6,0287857E-001	6,228444178687944E-001	1,000000000000000E+000
6,0585481E-001	6,825403180987042E-001	1,000000000000000E+000
6,0880142E-001	7,460017017133183E-001	1,000000000000000E+000
6,1182439E-001	8,147310855589289E-001	1,000000000000000E+000
6,1486435E-001	8,882205748757439E-001	1,000000000000000E+000
6,1785126E-001	9,674195411051194E-001	1,000000000000000E+000
6,2083924E-001	1,049698336113266E+000	1,000000000000000E+000
6,2391222E-001	1,141668168789881E+000	1,000000000000000E+000
6,2692672E-001	1,237224844206223E+000	1,000000000000000E+000
6,2994546E-001	1,336886421814615E+000	1,000000000000000E+000
6,3293338E-001	1,445252974371922E+000	1,000000000000000E+000
6,3593727E-001	1,557031435769488E+000	1,000000000000000E+000
6,3888848E-001	1,673931482445564E+000	1,000000000000000E+000
6,4195675E-001	1,801193133368235E+000	1,000000000000000E+000
6,4498287E-001	1,931376059816266E+000	1,000000000000000E+000
6,4787281E-001	2,069394801690235E+000	1,000000000000000E+000
6,5093654E-001	2,213678785040134E+000	1,000000000000000E+000
6,5391922E-001	2,364563752768262E+000	1,000000000000000E+000
6,5692836E-001	2,517820188670065E+000	1,000000000000000E+000
6,5999067E-001	2,680665565253392E+000	1,000000000000000E+000
6,6292763E-001	2,847702264245137E+000	1,000000000000000E+000
6,6587740E-001	3,024045195438966E+000	1,000000000000000E+000
6,6896522E-001	3,206991566653443E+000	1,000000000000000E+000
6,7194784E-001	3,389165771183229E+000	1,000000000000000E+000
6,7491239E-001	3,579092463364407E+000	1,000000000000000E+000
6,7802459E-001	3,779232175104212E+000	1,000000000000000E+000
6,8090749E-001	3,978528183266121E+000	1,000000000000000E+000
6,8394744E-001	4,191298647126914E+000	1,000000000000000E+000
6,8694711E-001	4,394605221616807E+000	1,000000000000000E+000
6,8993503E-001	4,617095871205500E+000	1,000000000000000E+000
6,9293261E-001	4,837135424824808E+000	1,000000000000000E+000
6,9594580E-001	5,059048493899866E+000	1,000000000000000E+000
6,9898808E-001	5,294079229911439E+000	1,000000000000000E+000
7,0195585E-001	5,522440467325481E+000	1,000000000000000E+000
7,0494759E-001	5,764514713507253E+000	1,000000000000000E+000
7,0795518E-001	6,009321452302146E+000	1,000000000000000E+000
7,1097183E-001	6,255554557285869E+000	1,000000000000000E+000
7,1396828E-001	6,502065504894802E+000	1,000000000000000E+000
7,1697110E-001	6,754318117757506E+000	1,000000000000000E+000
7,1989644E-001	6,994097623627731E+000	1,000000000000000E+000
7,2292048E-001	7,266015820695145E+000	1,000000000000000E+000
7,2592860E-001	7,529279381915273E+000	1,000000000000000E+000
7,2887838E-001	7,789381815192428E+000	1,000000000000000E+000
7,3194063E-001	8,063813530466234E+000	1,000000000000000E+000
7,3494881E-001	8,337708349806391E+000	1,000000000000000E+000
7,3792076E-001	8,605914100295038E+000	1,000000000000000E+000
7,4091834E-001	8,869957213634223E+000	1,000000000000000E+000
7,4391097E-001	9,153443365835633E+000	1,000000000000000E+000
7,4688041E-001	9,435755065576870E+000	1,000000000000000E+000
7,4996716E-001	9,715406220313355E+000	1,000000000000000E+000
7,5291127E-001	1,000463027954618E+001	1,000000000000000E+000
7,5593674E-001	1,028891870460542E+001	1,000000000000000E+000
7,5891936E-001	1,057177562900144E+001	1,000000000000000E+000
7,6191896E-001	1,084666032301863E+001	1,000000000000000E+000
7,6504713E-001	1,116602531339035E+001	1,000000000000000E+000
7,6799685E-001	1,146275530718351E+001	1,000000000000000E+000
7,7099752E-001	1,172408353410606E+001	1,000000000000000E+000
7,7398133E-001	1,200541786224392E+001	1,000000000000000E+000
7,7699053E-001	1,234321825128569E+001	1,000000000000000E+000
7,8002197E-001	1,264882415830408E+001	1,000000000000000E+000
7,8299719E-001	1,295183989209647E+001	1,000000000000000E+000
7,8595746E-001	1,324885041332570E+001	1,000000000000000E+000
7,8902930E-001	1,356576415132773E+001	1,000000000000000E+000
7,9204601E-001	1,386971520444979E+001	1,000000000000000E+000
7,9499465E-001	1,416500828514830E+001	1,000000000000000E+000
7,9799634E-001	1,448493623990322E+001	1,000000000000000E+000
8,0097061E-001	1,476366486604593E+001	1,000000000000000E+000
8,0398816E-001	1,509169731172574E+001	1,000000000000000E+000
8,0698150E-001	1,541096151456273E+001	1,000000000000000E+000
8,1006110E-001	1,572812428470598E+001	1,000000000000000E+000
8,1303072E-001	1,604480373305260E+001	1,000000000000000E+000
8,1601864E-001	1,635877612712979E+001	1,000000000000000E+000
8,1902146E-001	1,663997980121030E+001	1,000000000000000E+000
8,2202321E-001	1,697033346726516E+001	1,000000000000000E+000
8,2501233E-001	1,728757663865211E+001	1,000000000000000E+000
8,2798016E-001	1,762669787263658E+001	1,000000000000000E+000
8,3095533E-001	1,793815086920517E+001	1,000000000000000E+000
8,3398461E-001	1,825268161080596E+001	1,000000000000000E+000
8,3703953E-001	1,857539143732615E+001	1,000000000000000E+000
8,3997387E-001	1,887883823936119E+001	1,000000000000000E+000
8,4300065E-001	1,921656831781340E+001	1,000000000000000E+000
8,4606391E-001	1,956358860490536E+001	1,000000000000000E+000
8,4903365E-001	1,988838256700507E+001	1,000000000000000E+000
8,5198045E-001	2,022169886046259E+001	1,000000000000000E+000
8,5505331E-001	2,052278332361557E+001	1,000000000000000E+000
8,5797441E-001	2,085587855004394E+001	1,000000000000000E+000
8,6098146E-001	2,119507449595028E+001	1,000000000000000E+000
8,6397159E-001	2,153163116791890E+001	1,000000000000000E+000
8,6698079E-001	2,180179642063160E+001	1,000000000000000E+000
8,7000370E-001	2,218647051857715E+001	1,000000000000000E+000
8,7303519E-001	2,250954929122577E+001	1,000000000000000E+000
8,7596798E-001	2,280810623104048E+001	1,000000000000000E+000
8,7900907E-001	2,317352990620259E+001	1,000000000000000E+000
8,8196099E-001	2,351032838705171E+001	1,000000000000000E+000
8,8502532E-001	2,378353237200207E+001	1,000000000000000E+000
8,8797188E-001	2,417214343945199E+001	1,000000000000000E+000
8,9101398E-001	2,447624822484670E+001	1,000000000000000E+000
8,9400405E-001	2,482182822597827E+001	1,000000000000000E+000
8,9693266E-001	2,513318812245291E+001	1,000000000000000E+000
8,9997369E-001	2,551423899035342E+001	1,000000000000000E+000
9,0297645E-001	2,582224264166523E+001	1,000000000000000E+000
9,0601337E-001	2,617876330556658E+001	1,000000000000000E+000
9,0903515E-001	2,652003916753392E+001	1,000000000000000E+000
9,1204441E-001	2,677109456116375E+001	1,000000000000000E+000
9,1501218E-001	2,720323754654440E+001	1,000000000000000E+000
9,1802138E-001	2,754223580452316E+001	1,000000000000000E+000
9,2099983E-001	2,787232150025920E+001	1,000000000000000E+000
9,2401218E-001	2,822651019658628E+001	1,000000000000000E+000
9,2703509E-001	2,849365711077019E+001	1,000000000000000E+000
9,2999548E-001	2,889560663943388E+001	1,000000000000000E+000
9,3302166E-001	2,924110111060304E+001	1,000000000000000E+000
9,3597996E-001	2,953188182329109E+001	1,000000000000000E+000
9,3895936E-001	2,989491876615151E+001	1,000000000000000E+000
9,4200259E-001	3,023944941561763E+001	1,000000000000000E+000
9,4502187E-001	3,058596332815659E+001	1,000000000000000E+000
9,4805604E-001	3,092806729681104E+001	1,000000000000000E+000
9,5102483E-001	3,117466593383398E+001	1,000000000000000E+000
9,5395207E-001	3,155728293583223E+001	1,000000000000000E+000
9,5699334E-001	3,193762862412018E+001	1,000000000000000E+000
9,6006203E-001	3,227335752543408E+001	1,000000000000000E+000
9,6297985E-001	3,265311772266486E+001	1,000000000000000E+000
9,6596897E-001	3,298705674704501E+001	1,000000000000000E+000
9,6900570E-001	3,332960007196107E+001	1,000000000000000E+000
9,7197992E-001	3,366635639705362E+001	1,000000000000000E+000
9,7508258E-001	3,397877570588031E+001	1,000000000000000E+000
9,7802472E-001	3,436843926620043E+001	1,000000000000000E+000
9,8103404E-001	3,466514709476985E+001	1,000000000000000E+000
9,8403150E-001	3,501898855173658E+001	1,000000000000000E+000
9,8704493E-001	3,530359743863318E+001	1,000000000000000E+000
9,8999900E-001	3,568957965930866E+001	1,000000000000000E+000
9,9302095E-001	3,609155285736877E+001	1,000000000000000E+000
9,9606514E-001	3,643070977345067E+001	1,000000000000000E+000
9,9896383E-001	3,668188078657572E+001	1,000000000000000E+000
9,9928570E-001	3,682927663147859E+001	1,000000000000000E+000
9,9635613E-001	3,641805996483942E+001	1,000000000000000E+000
9,9331290E-001	3,605294120636114E+001	1,000000000000000E+000
9,9032283E-001	3,567388445828237E+001	1,000000000000000E+000
9,8731041E-001	3,525991393054693E+001	1,000000000000000E+000
9,8432887E-001	3,494857714505946E+001	1,000000000000000E+000
9,8129314E-001	3,459628393076991E+001	1,000000000000000E+000
9,7832328E-001	3,422399478055999E+001	1,000000000000000E+000
9,7531182E-001	3,364240142817937E+001	1,000000000000000E+000
9,7230160E-001	3,349203991916988E+001	1,000000000000000E+000
9,6931577E-001	3,312622726747509E+001	1,000000000000000E+000
9,6633732E-001	3,273601184734676E+001	1,000000000000000E+000
9,6333343E-001	3,239709894592264E+001	1,000000000000000E+000
9,6032637E-001	3,202626348514951E+001	1,000000000000000E+000
9,5732784E-001	3,164398336491607E+001	1,000000000000000E+000
9,5434409E-001	3,129875292762085E+001	1,000000000000000E+000
9,5128286E-001	3,094907296028259E+001	1,000000000000000E+000
9,4827360E-001	3,061979597360903E+001	1,000000000000000E+000
9,4532287E-001	3,026696562361553E+001	1,000000000000000E+000
9,4224572E-001	2,988921444324137E+001	1,000000000000000E+000
9,3930763E-001	2,955902785238504E+001	1,000000000000000E+000
9,3629104E-001	2,920584501322696E+001	1,000000000000000E+000
9,3325752E-001	2,884558562951281E+001	1,000000000000000E+000
9,3025881E-001	2,832977171117193E+001	1,000000000000000E+000
9,2730588E-001	2,812008543809236E+001	1,000000000000000E+000
9,2434025E-001	2,777620609736493E+001	1,000000000000000E+000
9,2128646E-001	2,745739627722423E+001	1,000000000000000E+000
9,1825718E-001	2,705607772333013E+001	1,000000000000000E+000
9,1524994E-001	2,674462285982506E+001	1,000000000000000E+000
9,1232574E-001	2,638948354834599E+001	1,000000000000000E+000
9,0931118E-001	2,604635119357084E+001	1,000000000000000E+000
9,0628594E-001	2,566809579114090E+001	1,000000000000000E+000
9,0329921E-001	2,531889239811835E+001	1,000000000000000E+000
9,0035903E-001	2,500880793149244E+001	1,000000000000000E+000
8,9734614E-001	2,462692033491777E+001	1,000000000000000E+000
8,9428973E-001	2,430993266454364E+001	1,000000000000000E+000
8,9128375E-001	2,399256971809587E+001	1,000000000000000E+000
8,8829565E-001	2,362320831573470E+001	1,000000000000000E+000
8,8521749E-001	2,329503906584102E+001	1,000000000000000E+000
8,8229859E-001	2,297127677388738E+001	1,000000000000000E+000
8,7928092E-001	2,258501124828047E+001	1,000000000000000E+000
8,7624621E-001	2,228484023185013E+001	1,000000000000000E+000
8,7331450E-001	2,189045893186338E+001	1,000000000000000E+000
8,7027460E-001	2,162825972801434E+001	1,000000000000000E+000
8,6732894E-001	2,127184677340273E+001	1,000000000000000E+000
8,6427307E-001	2,096122148058588E+001	1,000000000000000E+000
8,6128730E-001	2,059842686209824E+001	1,000000000000000E+000
8,5826552E-001	2,029429974135849E+001	1,000000000000000E+000
8,5535383E-001	1,994886756646122E+001	1,000000000000000E+000
8,5227245E-001	1,961973540177422E+001	1,000000000000000E+000
8,4931308E-001	1,930936036113269E+001	1,000000000000000E+000
8,4631670E-001	1,897811847668385E+001	1,000000000000000E+000
8,4329265E-001	1,863341878885043E+001	1,000000000000000E+000
8,4028172E-001	1,832443753193155E+001	1,000000000000000E+000
8,3730710E-001	1,800575970265317E+001	1,000000000000000E+000
8,3430642E-001	1,767879463904573E+001	1,000000000000000E+000
8,3128452E-001	1,736716315981482E+001	1,000000000000000E+000
8,2829124E-001	1,705475188896500E+001	1,000000000000000E+000
8,2531381E-001	1,669758000949605E+001	1,000000000000000E+000
8,2225585E-001	1,640039026980494E+001	1,000000000000000E+000
8,1930608E-001	1,608667185368713E+001	1,000000000000000E+000
8,1630641E-001	1,577713771201594E+001	1,000000000000000E+000
8,1327385E-001	1,546773496655385E+001	1,000000000000000E+000
8,1032890E-001	1,516486478200750E+001	1,000000000000000E+000
8,0732346E-001	1,484713739697353E+001	1,000000000000000E+000
8,0428553E-001	1,453193270741129E+001	1,000000000000000E+000
8,0128926E-001	1,422282244297520E+001	1,000000000000000E+000
7,9829901E-001	1,392218907836337E+001	1,000000000000000E+000
7,9531115E-001	1,362769105131663E+001	1,000000000000000E+000
7,9233265E-001	1,331268839541480E+001	1,000000000000000E+000
7,8927886E-001	1,299400567832720E+001	1,000000000000000E+000
7,8632909E-001	1,268370395060839E+001	1,000000000000000E+000
7,8326255E-001	1,240906476846095E+001	1,000000000000000E+000
7,8033632E-001	1,210550966811558E+001	1,000000000000000E+000
7,7738547E-001	1,182183869206710E+001	1,000000000000000E+000
7,7424139E-001	1,151055395569392E+001	1,000000000000000E+000
7,7126086E-001	1,124063307080679E+001	1,000000000000000E+000
7,6826447E-001	1,094726249940541E+001	1,000000000000000E+000
7,6532960E-001	1,067177170339352E+001	1,000000000000000E+000
7,6231825E-001	1,038044571079097E+001	1,000000000000000E+000
7,5931120E-001	1,009824282829725E+001	1,000000000000000E+000
7,5630730E-001	9,820961091658987E+000	1,000000000000000E+000
7,5331718E-001	9,532996225932393E+000	1,000000000000000E+000
7,5033349E-001	9,259944267756794E+000	1,000000000000000E+000
7,4724466E-001	8,979433158695578E+000	1,000000000000000E+000
7,4428099E-001	8,707487372015351E+000	1,000000000000000E+000
7,4128783E-001	8,449148428480640E+000	1,000000000000000E+000
7,3829246E-001	8,184041068667511E+000	1,000000000000000E+000
7,3525888E-001	7,918679059160013E+000	1,000000000000000E+000
7,3230600E-001	7,653248149791807E+000	1,000000000000000E+000
7,2938377E-001	7,401213876987555E+000	1,000000000000000E+000
7,2626740E-001	7,144332040397018E+000	1,000000000000000E+000
7,2325176E-001	6,889950526071488E+000	1,000000000000000E+000
7,2032750E-001	6,621392701420932E+000	1,000000000000000E+000
7,1732891E-001	6,389755556575309E+000	1,000000000000000E+000
7,1426666E-001	6,148635896763317E+000	1,000000000000000E+000
7,1123195E-001	5,910537774161426E+000	1,000000000000000E+000
7,0833206E-001	5,674902190866121E+000	1,000000000000000E+000
7,0527488E-001	5,441642710914401E+000	1,000000000000000E+000
7,0234132E-001	5,208908221145862E+000	1,000000000000000E+000
6,9931835E-001	4,979237151896065E+000	1,000000000000000E+000
6,9630283E-001	4,766086598346515E+000	1,000000000000000E+000
6,9330746E-001	4,548798078785150E+000	1,000000000000000E+000
6,9023758E-001	4,334701390662431E+000	1,000000000000000E+000
6,8717331E-001	4,125901625607838E+000	1,000000000000000E+000
6,8418103E-001	3,920653231120966E+000	1,000000000000000E+000
6,8124729E-001	3,724216699600225E+000	1,000000000000000E+000
6,7816800E-001	3,532630844958241E+000	1,000000000000000E+000
6,7526925E-001	3,342112387253835E+000	1,000000000000000E+000
6,7231947E-001	3,157102463298116E+000	1,000000000000000E+000
6,6919351E-001	2,983181554815680E+000	1,000000000000000E+000
6,6625649E-001	2,809406015726310E+000	1,000000000000000E+000
6,6326851E-001	2,640667025920628E+000	1,000000000000000E+000
6,6029650E-001	2,482178152367776E+000	1,000000000000000E+000
6,5726340E-001	2,327545134025193E+000	1,000000000000000E+000
6,5424830E-001	2,175513319181206E+000	1,000000000000000E+000
6,5121579E-001	2,033527306925137E+000	1,000000000000000E+000
6,4817876E-001	1,898014030488561E+000	1,000000000000000E+000
6,4519739E-001	1,765755230776314E+000	1,000000000000000E+000
6,4225620E-001	1,642308890853343E+000	1,000000000000000E+000
6,3925111E-001	1,524236193103256E+000	1,000000000000000E+000
6,3624310E-001	1,412105930441161E+000	1,000000000000000E+000
6,3322860E-001	1,305474898881387E+000	1,000000000000000E+000
6,3023955E-001	1,205291997489270E+000	1,000000000000000E+000
6,2722397E-001	1,110175744822575E+000	1,000000000000000E+000
6,2424344E-001	1,022529708825545E+000	1,000000000000000E+000
6,2128419E-001	9,387744134735492E-001	1,000000000000000E+000
6,1823249E-001	8,605466690125638E-001	1,000000000000000E+000
6,1529869E-001	7,873240874662084E-001	1,000000000000000E+000
6,1218542E-001	7,206303405273462E-001	1,000000000000000E+000
6,0923988E-001	6,567687498122599E-001	1,000000000000000E+000
6,0618186E-001	5,982238618179705E-001	1,000000000000000E+000
6,0324389E-001	5,435445241402008E-001	1,000000000000000E+000
6,0020435E-001	4,935740900175052E-001	1,000000000000000E+000
5,9705365E-001	4,455912526292982E-001	1,000000000000000E+000
5,9397525E-001	4,015067877657637E-001	1,000000000000000E+000
5,9100735E-001	3,623455271401763E-001	1,000000000000000E+000
5,8809483E-001	3,255975296522360E-001	1,000000000000000E+000
5,8501452E-001	2,922111791590249E-001	1,000000000000000E+000
5,8203804E-001	2,614750018058327E-001	1,000000000000000E+000
5,7905239E-001	2,334895837426925E-001	1,000000000000000E+000
5,7604742E-001	2,078692865665674E-001	1,000000000000000E+000
5,7305205E-001	1,846825679396682E-001	1,000000000000000E+000
5,7004815E-001	1,631522660340079E-001	1,000000000000000E+000
5,6701559E-001	1,438763722357109E-001	1,000000000000000E+000
5,6405628E-001	1,263756951498811E-001	1,000000000000000E+000
5,6107265E-001	1,104999329818757E-001	1,000000000000000E+000
5,5802405E-001	9,615851071443593E-002	1,000000000000000E+000
5,5507010E-001	8,346153688701496E-002	1,000000000000000E+000
5,5200469E-001	7,185215449758919E-002	1,000000000000000E+000
5,4903579E-001	6,152471062799059E-002	1,000000000000000E+000
5,4605204E-001	5,231402383572392E-002	1,000000000000000E+000
5,4289317E-001	4,393350568762611E-002	1,000000000000000E+000
5,4004961E-001	3,664641090549432E-002	1,000000000000000E+000
5,3695440E-001	3,014704493711795E-002	1,000000000000000E+000
5,3392512E-001	2,439231867527025E-002	1,000000000000000E+000
5,3090841E-001	1,932628414553517E-002	1,000000000000000E+000
5,2792364E-001	1,486531697406884E-002	1,000000000000000E+000
5,2494419E-001	1,088358153204450E-002	1,000000000000000E+000
5,2200502E-001	7,412518892617258E-003	1,000000000000000E+000
5,1879835E-001	3,422448755863727E-003	1,000000000000000E+000
5,1583481E-001	7,711354725000140E-004	1,000000000000000E+000
5,1282138E-001	-1,635703085655742E-003	1,000000000000000E+000
5,0982708E-001	-3,714438864826364E-003	1,000000000000000E+000
5,0683171E-001	-5,596674874955819E-003	1,000000000000000E+000
5,0390315E-001	-7,132361864957804E-003	1,000000000000000E+000
5,0078672E-001	-8,679738422420688E-003	1,000000000000000E+000
4,9786991E-001	-9,979231222881114E-003	1,000000000000000E+000
4,9470994E-001	-1,041402777530465E-002	1,000000000000000E+000
4,9172944E-001	-1,144182089388329E-002	1,000000000000000E+000
4,8874569E-001	-1,241339000930283E-002	1,000000000000000E+000
4,8579574E-001	-1,331382398136088E-002	1,000000000000000E+000
4,8281857E-001	-1,419888320840924E-002	1,000000000000000E+000
4,7976375E-001	-1,504574129711661E-002	1,000000000000000E+000
4,7676119E-001	-1,584642774423693E-002	1,000000000000000E+000
4,7376445E-001	-1,672450762586308E-002	1,000000000000000E+000
4,7080624E-001	-1,765347331460865E-002	1,000000000000000E+000
4,6775985E-001	-1,868114411440734E-002	1,000000000000000E+000
4,6475706E-001	-1,978527248719320E-002	1,000000000000000E+000
4,6171817E-001	-2,120523775010130E-002	1,000000000000000E+000
4,5872378E-001	-2,284652868810055E-002	1,000000000000000E+000
4,5570931E-001	-2,475085556021384E-002	1,000000000000000E+000
4,5274046E-001	-2,676639821994931E-002	1,000000000000000E+000
4,4975141E-001	-2,915231024349096E-002	1,000000000000000E+000
4,4673261E-001	-3,153633644071546E-002	1,000000000000000E+000
4,4376698E-001	-3,376835487627727E-002	1,000000000000000E+000
4,4072384E-001	-3,561786480819240E-002	1,000000000000000E+000
4,3774757E-001	-3,684710734506250E-002	1,000000000000000E+000
4,3476912E-001	-3,741527621738827E-002	1,000000000000000E+000
4,3172279E-001	-3,741364242997913E-002	1,000000000000000E+000
4,2874095E-001	-3,684439917265561E-002	1,000000000000000E+000
4,2580310E-001	-3,585992308936448E-002	1,000000000000000E+000
4,2273229E-001	-3,471901918108866E-002	1,000000000000000E+000
4,1970718E-001	-3,336044155639895E-002	1,000000000000000E+000
4,1670650E-001	-3,183222677724462E-002	1,000000000000000E+000
4,1369089E-001	-3,011400709293000E-002	1,000000000000000E+000
4,1073903E-001	-2,838795449238381E-002	1,000000000000000E+000
4,0782118E-001	-2,666808581882518E-002	1,000000000000000E+000
4,0468562E-001	-2,499495444358958E-002	1,000000000000000E+000
4,0174016E-001	-2,341839976401794E-002	1,000000000000000E+000
3,9867893E-001	-2,202301514899890E-002	1,000000000000000E+000
3,9573553E-001	-2,077133797954914E-002	1,000000000000000E+000
3,9277098E-001	-1,963556318780374E-002	1,000000000000000E+000
3,8974160E-001	-1,865594333397802E-002	1,000000000000000E+000
3,8671118E-001	-1,776372410355409E-002	1,000000000000000E+000
3,8378268E-001	-1,698799656591615E-002	1,000000000000000E+000
3,8076168E-001	-1,630024397129895E-002	1,000000000000000E+000
3,7765810E-001	-1,566196549968901E-002	1,000000000000000E+000
3,7471154E-001	-1,508565886947176E-002	1,000000000000000E+000
3,7174806E-001	-1,458545625930474E-002	1,000000000000000E+000
3,6879078E-001	-1,411136865176049E-002	1,000000000000000E+000
3,6574233E-001	-1,368976935684627E-002	1,000000000000000E+000
3,6273211E-001	-1,330467215432972E-002	1,000000000000000E+000
3,5968786E-001	-1,296068604163358E-002	1,000000000000000E+000
3,5673177E-001	-1,264002721937784E-002	1,000000000000000E+000
3,5373208E-001	-1,232712494292296E-002	1,000000000000000E+000
3,5078132E-001	-1,203845960953670E-002	1,000000000000000E+000
3,4774023E-001	-1,176585592031204E-002	1,000000000000000E+000
3,4475762E-001	-1,151281344653382E-002	1,000000000000000E+000
3,4174627E-001	-1,129070981523148E-002	1,000000000000000E+000
3,3873495E-001	-1,105895968883441E-002	1,000000000000000E+000
3,3572999E-001	-1,083995747284133E-002	1,000000000000000E+000
3,3275026E-001	-1,065316039113898E-002	1,000000000000000E+000
3,2975197E-001	-1,048536475594980E-002	1,000000000000000E+000
3,2669711E-001	-1,032861871936554E-002	1,000000000000000E+000
3,2374975E-001	-1,015899134454708E-002	1,000000000000000E+000
3,2077855E-001	-1,000253782927563E-002	1,000000000000000E+000
3,1776401E-001	-9,850973586626816E-003	1,000000000000000E+000
3,1470597E-001	-9,712931591884903E-003	1,000000000000000E+000
3,1174031E-001	-9,586423638518554E-003	1,000000000000000E+000
3,0879697E-001	-9,446869574723713E-003	1,000000000000000E+000
3,0577394E-001	-9,329587495355229E-003	1,000000000000000E+000
3,0274564E-001	-9,217843636878331E-003	1,000000000000000E+000
2,9976088E-001	-9,112562957236125E-003	1,000000000000000E+000
2,9679519E-001	-9,004419753982612E-003	1,000000000000000E+000
2,9376692E-001	-8,901370511614090E-003	1,000000000000000E+000
2,9076299E-001	-8,813943824907147E-003	1,000000000000000E+000
2,8773153E-001	-8,710425998923188E-003	1,000000000000000E+000
2,8480938E-001	-8,606992662128960E-003	1,000000000000000E+000
2,8174177E-001	-8,512693417510365E-003	1,000000000000000E+000
2,7877825E-001	-8,437145664119072E-003	1,000000000000000E+000
2,7577758E-001	-8,355612189554690E-003	1,000000000000000E+000
2,7278531E-001	-8,268495906994917E-003	1,000000000000000E+000
2,6971138E-001	-8,166989540908776E-003	1,000000000000000E+000
2,6670426E-001	-8,098975546993792E-003	1,000000000000000E+000
2,6373011E-001	-8,020380208038552E-003	1,000000000000000E+000
2,6073155E-001	-7,936185893912567E-003	1,000000000000000E+000
2,5777864E-001	-7,868671582012834E-003	1,000000000000000E+000
2,5478327E-001	-7,801475302913363E-003	1,000000000000000E+000
2,5180486E-001	-7,740146026454522E-003	1,000000000000000E+000
2,4868414E-001	-7,677172466200755E-003	1,000000000000000E+000
2,4573335E-001	-7,617004727377179E-003	1,000000000000000E+000
2,4278896E-001	-7,558566647016290E-003	1,000000000000000E+000
2,3970221E-001	-7,487633981139580E-003	1,000000000000000E+000
2,3676203E-001	-7,431985172490552E-003	1,000000000000000E+000
2,3373264E-001	-7,385751020990622E-003	1,000000000000000E+000
2,3078504E-001	-7,318605307783707E-003	1,000000000000000E+000
2,2775680E-001	-7,264581912145955E-003	1,000000000000000E+000
2,2470294E-001	-7,205216654379957E-003	1,000000000000000E+000
2,2177868E-001	-7,157180847348239E-003	1,000000000000000E+000
2,1874940E-001	-7,099912969800668E-003	1,000000000000000E+000
2,1570297E-001	-7,046584266289652E-003	1,000000000000000E+000
2,1275535E-001	-7,004486799148786E-003	1,000000000000000E+000
2,0973554E-001	-6,945845513599808E-003	1,000000000000000E+000
2,0675500E-001	-6,907768905888220E-003	1,000000000000000E+000
2,0368317E-001	-6,851156899766758E-003	1,000000000000000E+000
2,0075360E-001	-6,809021294992841E-003	1,000000000000000E+000
1,9780280E-001	-6,752767795596568E-003	1,000000000000000E+000
1,9479255E-001	-6,720309214449507E-003	1,000000000000000E+000
1,9181627E-001	-6,668360130000842E-003	1,000000000000000E+000
1,8881026E-001	-6,638503766617621E-003	1,000000000000000E+000
1,8576708E-001	-6,584967218092319E-003	1,000000000000000E+000
1,8278231E-001	-6,538923929644488E-003	1,000000000000000E+000
1,7980710E-001	-6,490797456261521E-003	1,000000000000000E+000
1,7672782E-001	-6,452323327711076E-003	1,000000000000000E+000
1,7378230E-001	-6,409136406589494E-003	1,000000000000000E+000
1,7078994E-001	-6,373966358248051E-003	1,000000000000000E+000
1,6774799E-001	-6,327703321347883E-003	1,000000000000000E+000
1,6473137E-001	-6,286620549884533E-003	1,000000000000000E+000
1,6174978E-001	-6,257284675181551E-003	1,000000000000000E+000
1,5868112E-001	-6,209390474123860E-003	1,000000000000000E+000
1,5577704E-001	-6,153616088583985E-003	1,000000000000000E+000
1,5276253E-001	-6,118251098549056E-003	1,000000000000000E+000
1,4972892E-001	-6,062147277611944E-003	1,000000000000000E+000
1,4677599E-001	-6,015697077060279E-003	1,000000000000000E+000
1,4375830E-001	-5,975036655467933E-003	1,000000000000000E+000
1,4078097E-001	-5,919137018458958E-003	1,000000000000000E+000
1,3772821E-001	-5,888615001900827E-003	1,000000000000000E+000
1,3476256E-001	-5,851964285810224E-003	1,000000000000000E+000
1,3180009E-001	-5,806208082858595E-003	1,000000000000000E+000
1,2885991E-001	-5,778227209643105E-003	1,000000000000000E+000
1,2575833E-001	-5,727253896577605E-003	1,000000000000000E+000
1,2272225E-001	-5,679653263469697E-003	1,000000000000000E+000
1,1978135E-001	-5,633970108273906E-003	1,000000000000000E+000
1,1674985E-001	-5,582946553714677E-003	1,000000000000000E+000
1,1382481E-001	-5,534502458906243E-003	1,000000000000000E+000
1,1079199E-001	-5,502998889900419E-003	1,000000000000000E+000
1,0774244E-001	-5,442606205888316E-003	1,000000000000000E+000
1,0481924E-001	-5,393079547849046E-003	1,000000000000000E+000
1,0173678E-001	-5,361577466003801E-003	1,000000000000000E+000
9,8736078E-002	-5,307584884774473E-003	1,000000000000000E+000
9,5777854E-002	-5,265520027650676E-003	1,000000000000000E+000
9,2864223E-002	-5,231150511269191E-003	1,000000000000000E+000
8,9777507E-002	-5,188545809174133E-003	1,000000000000000E+000
8,6753450E-002	-5,149103801790157E-003	1,000000000000000E+000
8,3841935E-002	-5,113123898897808E-003	1,000000000000000E+000
8,0814689E-002	-5,070361180855007E-003	1,000000000000000E+000
7,7775761E-002	-5,027930708114995E-003	1,000000000000000E+000
7,4840888E-002	-4,986262959822782E-003	1,000000000000000E+000
7,1807265E-002	-4,937535180415138E-003	1,000000000000000E+000
6,8816118E-002	-4,907021244558628E-003	1,000000000000000E+000
6,5679520E-002	-4,870412265307517E-003	1,000000000000000E+000
6,2811531E-002	-4,832185448602463E-003	1,000000000000000E+000
5,9731197E-002	-4,793670066461274E-003	1,000000000000000E+000
5,6761283E-002	-4,768013412705961E-003	1,000000000000000E+000
5,3746782E-002	-4,729913941955675E-003	1,000000000000000E+000
5,0747138E-002	-4,693592880827969E-003	1,000000000000000E+000
4,7720954E-002	-4,656994363480216E-003	1,000000000000000E+000
4,4751037E-002	-4,612110126698907E-003	1,000000000000000E+000
4,1738655E-002	-4,582468932982885E-003	1,000000000000000E+000
3,8750697E-002	-4,533509872562069E-003	1,000000000000000E+000
3,5770167E-002	-4,505108125158582E-003	1,000000000000000E+000
3,2798138E-002	-4,480393215459032E-003	1,000000000000000E+000
2,9557457E-002	-4,355206169300721E-003	1,000000000000000E+000
2,6563128E-002	-4,305268520034766E-003	1,000000000000000E+000
2,3527388E-002	-4,273863402583331E-003	1,000000000000000E+000
2,0579774E-002	-4,240926506450235E-003	1,000000000000000E+000
1,7571639E-002	-4,204281721651000E-003	1,000000000000000E+000
1,4573062E-002	-4,178352049366327E-003	1,000000000000000E+000
1,1584039E-002	-4,154441840978358E-003	1,000000000000000E+000
8,5547362E-003	-4,126607530230510E-003	1,000000000000000E+000
5,5624573E-003	-4,087415047012596E-003	1,000000000000000E+000
2,5490131E-003	-4,057417243897049E-003	1,000000000000000E+000
-2,0428555E-004	-4,023691199776929E-003	1,000000000000000E+000
-1,7561640E-004	-4,025900604057261E-003	1,000000000000000E+000