File: fig_si_ecsa/CeO2/10.txt
EC-Lab ASCII FILE
Nb header lines : 59

Cyclic Voltammetry

Run on channel : 1 (SN 10336)
User :
CE vs. WE compliance from -10 V to 10 V
Electrode connection : standard
Potential control : Ewe
Ewe ctrl range : min = -2,50 V, max = 2,50 V
Safety Limits :
	Do not start on E overload
Acquisition started on : 10/13/2024 13:58:28.596
Technique started on : 10/13/2024 13:58:28.596
Loaded Setting File :  C:\EC-lab data\Neethu\Methods\CV_ECSA.mps
Saved on :
	File : CV_ECSA_01_CV_C01.mpr
	Directory : C:\EC-lab data\Neethu\2024_10_13_Ni90Fe10_CeO2\CV_ECSA\
	Host : 10.54.33.65
Device : VMP3 (SN 0498)
Address : USB
EC-Lab for windows v11.52 (software)
Internet server v11.52 (firmware)
Command interpretor v11.50 (firmware)
Electrode material :
Initial state :
Electrolyte :
Comments :
Electrode surface area : 0,001 cm²
Characteristic mass : 0,001 g
Volume (V) : 0,001 cm³
Thickness (t) : 0,000 cm
Diameter (d) : 0,000 cm
Cell constant (k=t/A) : 0,000 cm-1
Cycle Definition : Charge/Discharge alternance
Ei (V)              0,064
vs.                 Ref
dE/dt               10,000
dE/dt unit          mV/s
E1 (V)              0,364
vs.                 Ref
Step percent        50
N                   10
E range min (V)     -2,500
E range max (V)     2,500
I Range             Auto
I Range min         Unset
I Range max         Unset
I Range init        Unset
Bandwidth           5
E2 (V)              0,064
vs.                 Ref
nc cycles           3
Reverse Scan        1
Ef (V)              0,070
vs.                 Eoc

Ewe/V	<I>/mA	cycle number
6,3479222E-002	-1,471490249969065E-003	1,000000000000000E+000
6,7396790E-002	5,263503248055766E-004	1,000000000000000E+000
7,1450189E-002	6,026597251615490E-004	1,000000000000000E+000
7,5444162E-002	6,576703009934012E-004	1,000000000000000E+000
7,9440266E-002	6,956154327916143E-004	1,000000000000000E+000
8,3484106E-002	7,141651861915059E-004	1,000000000000000E+000
8,7446265E-002	7,400075741222228E-004	1,000000000000000E+000
9,1454037E-002	7,577454115461377E-004	1,000000000000000E+000
9,5452257E-002	7,810626033191246E-004	1,000000000000000E+000
9,9439882E-002	7,922232304769759E-004	1,000000000000000E+000
1,0343067E-001	7,995778533195640E-004	1,000000000000000E+000
1,0743632E-001	8,185377364161176E-004	1,000000000000000E+000
1,1138722E-001	8,398009599351001E-004	1,000000000000000E+000
1,1539033E-001	8,447980808678375E-004	1,000000000000000E+000
1,1943736E-001	8,587488133613343E-004	1,000000000000000E+000
1,2341861E-001	8,680497287261672E-004	1,000000000000000E+000
1,2744761E-001	8,812053494222268E-004	1,000000000000000E+000
1,3143626E-001	8,946512201941084E-004	1,000000000000000E+000
1,3545252E-001	8,973847287523798E-004	1,000000000000000E+000
1,3939771E-001	9,149399590603060E-004	1,000000000000000E+000
1,4342034E-001	9,300610328392845E-004	1,000000000000000E+000
1,4744189E-001	9,352925416250303E-004	1,000000000000000E+000
1,5141572E-001	9,456412667026987E-004	1,000000000000000E+000
1,5538213E-001	9,545192275523980E-004	1,000000000000000E+000
1,5943447E-001	9,706273950642833E-004	1,000000000000000E+000
1,6342418E-001	9,780740179444834E-004	1,000000000000000E+000
1,6740756E-001	9,881344424987511E-004	1,000000000000000E+000
1,7139305E-001	1,000071167423069E-003	1,000000000000000E+000
1,7542312E-001	1,005619169316356E-003	1,000000000000000E+000
1,7939481E-001	1,022525019464041E-003	1,000000000000000E+000
1,8342061E-001	1,026962677079378E-003	1,000000000000000E+000
1,8743370E-001	1,030893886814333E-003	1,000000000000000E+000
1,9145736E-001	1,046771802605324E-003	1,000000000000000E+000
1,9543436E-001	1,055324063835773E-003	1,000000000000000E+000
1,9938593E-001	1,055614773105366E-003	1,000000000000000E+000
2,0341916E-001	1,076253051670154E-003	1,000000000000000E+000
2,0746191E-001	1,089326472639289E-003	1,000000000000000E+000
2,1143447E-001	1,088936080990671E-003	1,000000000000000E+000
2,1543610E-001	1,110803311247660E-003	1,000000000000000E+000
2,1941629E-001	1,122127146690792E-003	1,000000000000000E+000
2,2346437E-001	1,135006635094112E-003	1,000000000000000E+000
2,2739576E-001	1,146996595909718E-003	1,000000000000000E+000
2,3144276E-001	1,170410205506616E-003	1,000000000000000E+000
2,3543058E-001	1,172682625735143E-003	1,000000000000000E+000
2,3941909E-001	1,189867345534293E-003	1,000000000000000E+000
2,4339506E-001	1,203446077987021E-003	1,000000000000000E+000
2,4746007E-001	1,217170496534826E-003	1,000000000000000E+000
2,5141692E-001	1,232373870826215E-003	1,000000000000000E+000
2,5545865E-001	1,252218872347537E-003	1,000000000000000E+000
2,5940382E-001	1,270662678979101E-003	1,000000000000000E+000
2,6339254E-001	1,279498650412141E-003	1,000000000000000E+000
2,6742148E-001	1,307309355103859E-003	1,000000000000000E+000
2,7144834E-001	1,329949115946263E-003	1,000000000000000E+000
2,7543595E-001	1,338883622574269E-003	1,000000000000000E+000
2,7939388E-001	1,371299689236806E-003	1,000000000000000E+000
2,8341439E-001	1,393571548827889E-003	1,000000000000000E+000
2,8744444E-001	1,419152725348896E-003	1,000000000000000E+000
2,9143098E-001	1,437325917693130E-003	1,000000000000000E+000
2,9544407E-001	1,465175036072547E-003	1,000000000000000E+000
2,9943806E-001	1,486920966810969E-003	1,000000000000000E+000
3,0342570E-001	1,514036516541466E-003	1,000000000000000E+000
3,0739737E-001	1,531174128575473E-003	1,000000000000000E+000
3,1139773E-001	1,565989524317926E-003	1,000000000000000E+000
3,1540760E-001	1,589918437713535E-003	1,000000000000000E+000
3,1941754E-001	1,619888882420057E-003	1,000000000000000E+000
3,2338816E-001	1,651766907781602E-003	1,000000000000000E+000
3,2740545E-001	1,672909178456326E-003	1,000000000000000E+000
3,3140162E-001	1,701088559693077E-003	1,000000000000000E+000
3,3538467E-001	1,740123069956696E-003	1,000000000000000E+000
3,3943832E-001	1,759972228481083E-003	1,000000000000000E+000
3,4337607E-001	1,803546136081285E-003	1,000000000000000E+000
3,4741148E-001	1,834467506678608E-003	1,000000000000000E+000
3,5140857E-001	1,867490275967776E-003	1,000000000000000E+000
3,5538352E-001	1,897371857248129E-003	1,000000000000000E+000
3,5937324E-001	1,930693926287530E-003	1,000000000000000E+000
3,6309463E-001	1,959439380799365E-003	1,000000000000000E+000
3,6068016E-001	6,020621629566590E-004	1,000000000000000E+000
3,5669890E-001	3,480276552636496E-004	1,000000000000000E+000
3,5269430E-001	1,878445924314603E-004	1,000000000000000E+000
3,4868124E-001	6,732197856567593E-005	1,000000000000000E+000
3,4470421E-001	-2,445866548366708E-005	1,000000000000000E+000
3,4069115E-001	-8,974896665952902E-005	1,000000000000000E+000
3,3667490E-001	-1,580765216028608E-004	1,000000000000000E+000
3,3268833E-001	-2,167885614538911E-004	1,000000000000000E+000
3,2871449E-001	-2,610338852475306E-004	1,000000000000000E+000
3,2470357E-001	-2,994344169340813E-004	1,000000000000000E+000
3,2068309E-001	-3,405259160760756E-004	1,000000000000000E+000
3,1668273E-001	-3,679297055917382E-004	1,000000000000000E+000
3,1271100E-001	-4,043489138557236E-004	1,000000000000000E+000
3,0870432E-001	-4,352101630805318E-004	1,000000000000000E+000
3,0472836E-001	-4,648968026601686E-004	1,000000000000000E+000
3,0073863E-001	-4,799372525465320E-004	1,000000000000000E+000
2,9670647E-001	-5,118496040571090E-004	1,000000000000000E+000
2,9269975E-001	-5,237295534041373E-004	1,000000000000000E+000
2,8873333E-001	-5,446125265667339E-004	1,000000000000000E+000
2,8475100E-001	-5,613677137295816E-004	1,000000000000000E+000
2,8068700E-001	-5,880635177769999E-004	1,000000000000000E+000
2,7667609E-001	-5,892140762053131E-004	1,000000000000000E+000
2,7272773E-001	-6,162976412640462E-004	1,000000000000000E+000
2,6871249E-001	-6,195702651354980E-004	1,000000000000000E+000
2,6471961E-001	-6,365569395846383E-004	1,000000000000000E+000
2,6070830E-001	-6,483990115277380E-004	1,000000000000000E+000
2,5671998E-001	-6,521028787608001E-004	1,000000000000000E+000
2,5270051E-001	-6,650822980292176E-004	1,000000000000000E+000
2,4875003E-001	-6,729984334351998E-004	1,000000000000000E+000
2,4472213E-001	-6,799577930467894E-004	1,000000000000000E+000
2,4072388E-001	-6,926617652762024E-004	1,000000000000000E+000
2,3677447E-001	-6,930667470307415E-004	1,000000000000000E+000
2,3274867E-001	-7,051267982913301E-004	1,000000000000000E+000
2,2870904E-001	-7,083047767082462E-004	1,000000000000000E+000
2,2471189E-001	-7,131192984093943E-004	1,000000000000000E+000
2,2071366E-001	-7,180942351017922E-004	1,000000000000000E+000
2,1674094E-001	-7,317439064569997E-004	1,000000000000000E+000
2,1275647E-001	-7,265447597159507E-004	1,000000000000000E+000
2,0872326E-001	-7,461256715302015E-004	1,000000000000000E+000
2,0470804E-001	-7,439091622034994E-004	1,000000000000000E+000
2,0072575E-001	-7,593021499040474E-004	1,000000000000000E+000
1,9672538E-001	-7,554128897700844E-004	1,000000000000000E+000
1,9269852E-001	-7,707372069152962E-004	1,000000000000000E+000
1,8871835E-001	-7,734259449568553E-004	1,000000000000000E+000
1,8474133E-001	-7,845214112657478E-004	1,000000000000000E+000
1,8069111E-001	-7,860705002342566E-004	1,000000000000000E+000
1,7672579E-001	-7,960050522713077E-004	1,000000000000000E+000
1,7273499E-001	-7,984937774044402E-004	1,000000000000000E+000
1,6873041E-001	-8,117333135386528E-004	1,000000000000000E+000
1,6471308E-001	-8,136322790556340E-004	1,000000000000000E+000
1,6072229E-001	-8,180033942658677E-004	1,000000000000000E+000
1,5671451E-001	-8,243908204248265E-004	1,000000000000000E+000
1,5275766E-001	-8,350248983198909E-004	1,000000000000000E+000
1,4868517E-001	-8,353867386985121E-004	1,000000000000000E+000
1,4471772E-001	-8,434009685987370E-004	1,000000000000000E+000
1,4071737E-001	-8,528258189875852E-004	1,000000000000000E+000
1,3670683E-001	-8,634380772728810E-004	1,000000000000000E+000
1,3272411E-001	-8,682357275338970E-004	1,000000000000000E+000
1,2873223E-001	-8,806912336257033E-004	1,000000000000000E+000
1,2470114E-001	-8,825370816878206E-004	1,000000000000000E+000
1,2072838E-001	-8,994089642968620E-004	1,000000000000000E+000
1,1671848E-001	-8,959849603545240E-004	1,000000000000000E+000
1,1271495E-001	-9,122394608480286E-004	1,000000000000000E+000
1,0871673E-001	-9,142563534691485E-004	1,000000000000000E+000
1,0472911E-001	-9,327246047582290E-004	1,000000000000000E+000
1,0072666E-001	-9,320896939176116E-004	1,000000000000000E+000
9,6716754E-002	-9,393242468865616E-004	1,000000000000000E+000
9,2742935E-002	-9,485821025952690E-004	1,000000000000000E+000
8,8737272E-002	-9,663943608218175E-004	1,000000000000000E+000
8,4715717E-002	-9,677696964192567E-004	1,000000000000000E+000
8,0775835E-002	-9,811417084064373E-004	1,000000000000000E+000
7,6709725E-002	-9,828952835825387E-004	1,000000000000000E+000
7,2746508E-002	-1,000945491358395E-003	1,000000000000000E+000
6,8723880E-002	-1,000578075979357E-003	1,000000000000000E+000
6,4709753E-002	-1,014257340473168E-003	1,000000000000000E+000
6,4831741E-002	-1,672025457703322E-005	2,000000000000000E+000
6,8791777E-002	1,911698223485323E-004	2,000000000000000E+000
7,2820760E-002	3,089997390093627E-004	2,000000000000000E+000
7,6822169E-002	3,777817922051945E-004	2,000000000000000E+000
8,0840550E-002	4,473456932222064E-004	2,000000000000000E+000
8,4782548E-002	4,914147311865218E-004	2,000000000000000E+000
8,8842295E-002	5,421796788680309E-004	2,000000000000000E+000
9,2873409E-002	5,685382517791994E-004	2,000000000000000E+000
9,6821778E-002	5,988404727422347E-004	2,000000000000000E+000
1,0083272E-001	6,279183512055576E-004	2,000000000000000E+000
1,0479808E-001	6,568582509013749E-004	2,000000000000000E+000
1,0882706E-001	6,782997868328873E-004	2,000000000000000E+000
1,1282422E-001	7,024748624475967E-004	2,000000000000000E+000
1,1681288E-001	7,175364120215535E-004	2,000000000000000E+000
1,2081324E-001	7,424214150820200E-004	2,000000000000000E+000
1,2478708E-001	7,582538592369337E-004	2,000000000000000E+000
1,2883514E-001	7,871940051700228E-004	2,000000000000000E+000
1,3284504E-001	7,910246179865903E-004	2,000000000000000E+000
1,3685447E-001	8,157102849203461E-004	2,000000000000000E+000
1,4081497E-001	8,257151081731227E-004	2,000000000000000E+000
1,4482698E-001	8,467854453623747E-004	2,000000000000000E+000
1,4881885E-001	8,495025790411833E-004	2,000000000000000E+000
1,5279478E-001	8,732716401195998E-004	2,000000000000000E+000
1,5683119E-001	8,811969122756724E-004	2,000000000000000E+000
1,6077958E-001	8,882615519622897E-004	2,000000000000000E+000
1,6481173E-001	9,009707991262401E-004	2,000000000000000E+000
1,6882800E-001	9,209030942185087E-004	2,000000000000000E+000
1,7281668E-001	9,265181142836797E-004	2,000000000000000E+000
1,7678837E-001	9,414263366596502E-004	2,000000000000000E+000
1,8081100E-001	9,458837385291582E-004	2,000000000000000E+000
1,8481134E-001	9,622121919905871E-004	2,000000000000000E+000
1,8883716E-001	9,658659400884131E-004	2,000000000000000E+000
1,9281948E-001	9,792767049037615E-004	2,000000000000000E+000
1,9682936E-001	9,861078481966023E-004	2,000000000000000E+000
2,0079470E-001	1,001079486471736E-003	2,000000000000000E+000
2,0478761E-001	1,005259023696890E-003	2,000000000000000E+000
2,0886010E-001	1,021308110702425E-003	2,000000000000000E+000
2,1281694E-001	1,027053586801262E-003	2,000000000000000E+000
2,1682790E-001	1,050667992886809E-003	2,000000000000000E+000
2,2082718E-001	1,051613129675390E-003	2,000000000000000E+000
2,2482541E-001	1,061332303059450E-003	2,000000000000000E+000
2,2881727E-001	1,076712273196018E-003	2,000000000000000E+000
2,3283246E-001	1,097386210959585E-003	2,000000000000000E+000
2,3685615E-001	1,104185953644688E-003	2,000000000000000E+000
2,4083315E-001	1,120575939340701E-003	2,000000000000000E+000
2,4482398E-001	1,129179492164880E-003	2,000000000000000E+000
2,4883065E-001	1,149757221827280E-003	2,000000000000000E+000
2,5280976E-001	1,163421801148043E-003	2,000000000000000E+000
2,5682604E-001	1,178127146919937E-003	2,000000000000000E+000
2,6082975E-001	1,192565207492198E-003	2,000000000000000E+000
2,6484582E-001	1,212011462080735E-003	2,000000000000000E+000
2,6880053E-001	1,222251460772155E-003	2,000000000000000E+000
2,7280304E-001	1,250688711513282E-003	2,000000000000000E+000
2,7680442E-001	1,258682074775502E-003	2,000000000000000E+000
2,8080478E-001	1,283156925907221E-003	2,000000000000000E+000
2,8483483E-001	1,298628146253538E-003	2,000000000000000E+000
2,8879169E-001	1,311332446440010E-003	2,000000000000000E+000
2,9281431E-001	1,332432393004033E-003	2,000000000000000E+000
2,9680935E-001	1,366598328685444E-003	2,000000000000000E+000
3,0081710E-001	1,382031895681632E-003	2,000000000000000E+000
3,0483338E-001	1,411339580685032E-003	2,000000000000000E+000
3,0885491E-001	1,426383201895216E-003	2,000000000000000E+000
3,1277466E-001	1,457997907251679E-003	2,000000000000000E+000
3,1677711E-001	1,481961860042277E-003	2,000000000000000E+000
3,2078281E-001	1,509919229041153E-003	2,000000000000000E+000
3,2479054E-001	1,536738288619010E-003	2,000000000000000E+000
3,2878983E-001	1,568948764880018E-003	2,000000000000000E+000
3,3277535E-001	1,591800586201887E-003	2,000000000000000E+000
3,3677992E-001	1,634730808156612E-003	2,000000000000000E+000
3,4077287E-001	1,650832059062347E-003	2,000000000000000E+000
3,4479651E-001	1,698445018889657E-003	2,000000000000000E+000
3,4878734E-001	1,722653942393931E-003	2,000000000000000E+000
3,5279298E-001	1,758334564295150E-003	2,000000000000000E+000
3,5683787E-001	1,793227459495908E-003	2,000000000000000E+000
3,6079049E-001	1,839064762558941E-003	2,000000000000000E+000
3,6268193E-001	8,078909041357861E-004	2,000000000000000E+000
3,5871342E-001	3,610740996346402E-004	2,000000000000000E+000
3,5471520E-001	1,669119215809187E-004	2,000000000000000E+000
3,5070637E-001	3,457227599444352E-005	2,000000000000000E+000
3,4669858E-001	-5,581582160084950E-005	2,000000000000000E+000
3,4268868E-001	-1,372763494081845E-004	2,000000000000000E+000
3,3874243E-001	-1,987932223359251E-004	2,000000000000000E+000
3,3472630E-001	-2,683079283812327E-004	2,000000000000000E+000
3,3068019E-001	-3,102134728722090E-004	2,000000000000000E+000
3,2668942E-001	-3,455061700450377E-004	2,000000000000000E+000
3,2266679E-001	-3,975463586951031E-004	2,000000000000000E+000
3,1867072E-001	-4,357900787470971E-004	2,000000000000000E+000
3,1469792E-001	-4,600767383804091E-004	2,000000000000000E+000
3,1068590E-001	-4,960064161760227E-004	2,000000000000000E+000
3,0670998E-001	-5,251866702935711E-004	2,000000000000000E+000
3,0269369E-001	-5,543058938807625E-004	2,000000000000000E+000
2,9872733E-001	-5,683929644470067E-004	2,000000000000000E+000
2,9473650E-001	-5,946364812593338E-004	2,000000000000000E+000
2,9070327E-001	-6,096160536630884E-004	2,000000000000000E+000
2,8671035E-001	-6,311044749896556E-004	2,000000000000000E+000
2,8273338E-001	-6,398571259961933E-004	2,000000000000000E+000
2,7872238E-001	-6,629106772851178E-004	2,000000000000000E+000
2,7473053E-001	-6,695175512437276E-004	2,000000000000000E+000
2,7072063E-001	-6,895571214381923E-004	2,000000000000000E+000
2,6671603E-001	-6,932090674564703E-004	2,000000000000000E+000
2,6274964E-001	-7,001373810958805E-004	2,000000000000000E+000
2,5871748E-001	-7,160996203849739E-004	2,000000000000000E+000
2,5474682E-001	-7,346849070691604E-004	2,000000000000000E+000
2,5074863E-001	-7,356903488134464E-004	2,000000000000000E+000
2,4672495E-001	-7,551779478860536E-004	2,000000000000000E+000
2,4275854E-001	-7,634463545400684E-004	2,000000000000000E+000
2,3872107E-001	-7,699015609601003E-004	2,000000000000000E+000
2,3473452E-001	-7,805441752376891E-004	2,000000000000000E+000
2,3066203E-001	-7,986937769736066E-004	2,000000000000000E+000
2,2671790E-001	-7,940666612369206E-004	2,000000000000000E+000
2,2276212E-001	-8,057844908627761E-004	2,000000000000000E+000
2,1870765E-001	-8,039791346500721E-004	2,000000000000000E+000
2,1467869E-001	-8,196254376444927E-004	2,000000000000000E+000
2,1072002E-001	-8,162414496172346E-004	2,000000000000000E+000
2,0673846E-001	-8,284128962259274E-004	2,000000000000000E+000
2,0270099E-001	-8,340996517762073E-004	2,000000000000000E+000
1,9873244E-001	-8,343995858821392E-004	2,000000000000000E+000
1,9470984E-001	-8,389268314877669E-004	2,000000000000000E+000
1,9070525E-001	-8,525133850559603E-004	2,000000000000000E+000
1,8672188E-001	-8,527274154335740E-004	2,000000000000000E+000
1,8271092E-001	-8,650715314649504E-004	2,000000000000000E+000
1,7871693E-001	-8,671124443127270E-004	2,000000000000000E+000
1,7472507E-001	-8,772243496356098E-004	2,000000000000000E+000
1,7072794E-001	-8,785006044760221E-004	2,000000000000000E+000
1,6671167E-001	-8,916682189145098E-004	2,000000000000000E+000
1,6270921E-001	-8,969240822167476E-004	2,000000000000000E+000
1,5871310E-001	-9,069512280230202E-004	2,000000000000000E+000
1,5471911E-001	-9,135757467851726E-004	2,000000000000000E+000
1,5068482E-001	-9,217553922132567E-004	2,000000000000000E+000
1,4672586E-001	-9,239635170767251E-004	2,000000000000000E+000
1,4272127E-001	-9,382598991915445E-004	2,000000000000000E+000
1,3874106E-001	-9,403455528458598E-004	2,000000000000000E+000
1,3470997E-001	-9,499378189772260E-004	2,000000000000000E+000
1,3072234E-001	-9,529376097984939E-004	2,000000000000000E+000
1,2671563E-001	-9,690821735367220E-004	2,000000000000000E+000
1,2269195E-001	-9,727246284051538E-004	2,000000000000000E+000
1,1875844E-001	-9,881946786696946E-004	2,000000000000000E+000
1,1472096E-001	-9,817631560306676E-004	2,000000000000000E+000
1,1072274E-001	-1,004509433793530E-003	2,000000000000000E+000
1,0671496E-001	-1,010181957907559E-003	2,000000000000000E+000
1,0273584E-001	-1,016024530987061E-003	2,000000000000000E+000
9,8734424E-002	-1,023899999078519E-003	2,000000000000000E+000
9,4756357E-002	-1,042637860976993E-003	2,000000000000000E+000
9,0714648E-002	-1,044195280243276E-003	2,000000000000000E+000
8,6727656E-002	-1,055460667820233E-003	2,000000000000000E+000
8,2765937E-002	-1,059595882435576E-003	2,000000000000000E+000
7,8780435E-002	-1,078429087404707E-003	2,000000000000000E+000
7,4730247E-002	-1,080655387475554E-003	2,000000000000000E+000
7,0710793E-002	-1,086844840082686E-003	2,000000000000000E+000
6,6752888E-002	-1,099702410472133E-003	2,000000000000000E+000
6,3192800E-002	-1,129222113657027E-003	2,000000000000000E+000
6,6827141E-002	1,819956164462040E-005	3,000000000000000E+000
7,0823237E-002	1,694313059217136E-004	3,000000000000000E+000
7,4843742E-002	2,697979147283317E-004	3,000000000000000E+000
7,8804836E-002	3,488326162702747E-004	3,000000000000000E+000
8,2852922E-002	4,065955448490288E-004	3,000000000000000E+000
8,6836047E-002	4,658515289907676E-004	3,000000000000000E+000
9,0840884E-002	5,094331998878720E-004	3,000000000000000E+000
9,4853960E-002	5,503878750190497E-004	3,000000000000000E+000
9,8797016E-002	5,858398963701555E-004	3,000000000000000E+000
1,0282388E-001	6,132622410977644E-004	3,000000000000000E+000
1,0682742E-001	6,436769117836218E-004	3,000000000000000E+000
1,1082882E-001	6,767322926558971E-004	3,000000000000000E+000
1,1482917E-001	6,962930855041599E-004	3,000000000000000E+000
1,1882845E-001	7,304550704753249E-004	3,000000000000000E+000
1,2284578E-001	7,420165516965373E-004	3,000000000000000E+000
1,2682384E-001	7,685670612705420E-004	3,000000000000000E+000
1,3087298E-001	7,828946410747308E-004	3,000000000000000E+000
1,3483514E-001	7,950297059088098E-004	3,000000000000000E+000
1,3883972E-001	8,219971129653511E-004	3,000000000000000E+000
1,4281355E-001	8,383436231977391E-004	3,000000000000000E+000
1,4683087E-001	8,526544918789070E-004	3,000000000000000E+000
1,5082273E-001	8,783835434803249E-004	3,000000000000000E+000
1,5479125E-001	8,876683835599888E-004	3,000000000000000E+000
1,5879583E-001	9,087254481898906E-004	3,000000000000000E+000
1,6280361E-001	9,142051474352918E-004	3,000000000000000E+000
1,6682729E-001	9,268090147492754E-004	3,000000000000000E+000
1,7084675E-001	9,393443662567558E-004	3,000000000000000E+000
1,7477387E-001	9,533531623741633E-004	3,000000000000000E+000
1,7883469E-001	9,609390318574803E-004	3,000000000000000E+000
1,8282124E-001	9,794110644886856E-004	3,000000000000000E+000
1,8682159E-001	9,811474988560397E-004	3,000000000000000E+000
1,9084528E-001	1,003930703855414E-003	3,000000000000000E+000
1,9481805E-001	1,014897137658275E-003	3,000000000000000E+000
1,9880566E-001	1,018267011036016E-003	3,000000000000000E+000
2,0282193E-001	1,032553011841459E-003	3,000000000000000E+000
2,0679997E-001	1,052551989603127E-003	3,000000000000000E+000
2,1084338E-001	1,061697596558516E-003	3,000000000000000E+000
2,1478795E-001	1,073770326237771E-003	3,000000000000000E+000
2,1879466E-001	1,084943039367556E-003	3,000000000000000E+000
2,2280560E-001	1,100256483941513E-003	3,000000000000000E+000
2,2681551E-001	1,104198647495922E-003	3,000000000000000E+000
2,3082857E-001	1,128862825108056E-003	3,000000000000000E+000
2,3486075E-001	1,133005619420953E-003	3,000000000000000E+000
2,3882501E-001	1,148670929978836E-003	3,000000000000000E+000
2,4285719E-001	1,156134303999822E-003	3,000000000000000E+000
2,4683101E-001	1,178007680681290E-003	3,000000000000000E+000
2,5081542E-001	1,186244673320926E-003	3,000000000000000E+000
2,5481579E-001	1,210751673540841E-003	3,000000000000000E+000
2,5879920E-001	1,215254974576290E-003	3,000000000000000E+000
2,6283559E-001	1,236068104912259E-003	3,000000000000000E+000
2,6677650E-001	1,256295835143339E-003	3,000000000000000E+000
2,7081928E-001	1,274619345942349E-003	3,000000000000000E+000
2,7482811E-001	1,291611915264551E-003	3,000000000000000E+000
2,7879983E-001	1,309379244318096E-003	3,000000000000000E+000
2,8283626E-001	1,328327612740130E-003	3,000000000000000E+000
2,8682703E-001	1,351257684021862E-003	3,000000000000000E+000
2,9083163E-001	1,364750052609318E-003	3,000000000000000E+000
2,9483196E-001	1,390524289120173E-003	3,000000000000000E+000
2,9882807E-001	1,407027631271533E-003	3,000000000000000E+000
3,0278599E-001	1,432236823246870E-003	3,000000000000000E+000
3,0680439E-001	1,448689118088053E-003	3,000000000000000E+000
3,1083441E-001	1,478062181478078E-003	3,000000000000000E+000
3,1480718E-001	1,495267468945476E-003	3,000000000000000E+000
3,1880435E-001	1,524011678190662E-003	3,000000000000000E+000
3,2281953E-001	1,549690295144464E-003	3,000000000000000E+000
3,2680291E-001	1,566792322760364E-003	3,000000000000000E+000
3,3079585E-001	1,602957111673377E-003	3,000000000000000E+000
3,3483049E-001	1,635095276418426E-003	3,000000000000000E+000
3,3879122E-001	1,659042123248113E-003	3,000000000000000E+000
3,4282023E-001	1,696032683227077E-003	3,000000000000000E+000
3,4679934E-001	1,722365788602333E-003	3,000000000000000E+000
3,5084110E-001	1,760301127635307E-003	3,000000000000000E+000
3,5479897E-001	1,788675114868160E-003	3,000000000000000E+000
3,5878444E-001	1,819326154266797E-003	3,000000000000000E+000
3,6283046E-001	1,861071328608833E-003	3,000000000000000E+000
3,6068973E-001	4,991946689061567E-004	3,000000000000000E+000
3,5668615E-001	2,481320618314868E-004	3,000000000000000E+000
3,5269856E-001	9,274710707056055E-005	3,000000000000000E+000
3,4868973E-001	-2,411940945016254E-005	3,000000000000000E+000
3,4472439E-001	-1,209176234545184E-004	3,000000000000000E+000
3,4067526E-001	-1,893333202792331E-004	3,000000000000000E+000
3,3670145E-001	-2,546902440059297E-004	3,000000000000000E+000
3,3272550E-001	-3,089571264627856E-004	3,000000000000000E+000
3,2870287E-001	-3,629702092035197E-004	3,000000000000000E+000
3,2471734E-001	-3,995428436846197E-004	3,000000000000000E+000
3,2068732E-001	-4,484129920885815E-004	3,000000000000000E+000
3,1669545E-001	-4,787992048241674E-004	3,000000000000000E+000
3,1268343E-001	-5,194733213876920E-004	3,000000000000000E+000
3,0869052E-001	-5,416941027457734E-004	3,000000000000000E+000
3,0472729E-001	-5,824487935670855E-004	3,000000000000000E+000
3,0073649E-001	-6,002733059210221E-004	3,000000000000000E+000
2,9672554E-001	-6,291520508225554E-004	3,000000000000000E+000
2,9273155E-001	-6,461192971511523E-004	3,000000000000000E+000
2,8869730E-001	-6,656001295158144E-004	3,000000000000000E+000
2,8475103E-001	-6,849874241904932E-004	3,000000000000000E+000
2,8070295E-001	-7,133572668896783E-004	3,000000000000000E+000
2,7669093E-001	-7,198785052524841E-004	3,000000000000000E+000
2,7270010E-001	-7,385236463893219E-004	3,000000000000000E+000
2,6870081E-001	-7,485784720942029E-004	3,000000000000000E+000
2,6469308E-001	-7,634762713240473E-004	3,000000000000000E+000
2,6070842E-001	-7,746165811253636E-004	3,000000000000000E+000
2,5670829E-001	-7,857259256356698E-004	3,000000000000000E+000
2,5272495E-001	-7,936030114824122E-004	3,000000000000000E+000
2,4870445E-001	-8,050250713427798E-004	3,000000000000000E+000
2,4473697E-001	-8,137212811292266E-004	3,000000000000000E+000
2,4066980E-001	-8,256575452428982E-004	3,000000000000000E+000
2,3675431E-001	-8,280303176164735E-004	3,000000000000000E+000
2,3274228E-001	-8,413032251323935E-004	3,000000000000000E+000
2,2870375E-001	-8,412677204803366E-004	3,000000000000000E+000
2,2469810E-001	-8,474732567265199E-004	3,000000000000000E+000
2,2070201E-001	-8,596428483374288E-004	3,000000000000000E+000
2,1674408E-001	-8,726895885720950E-004	3,000000000000000E+000
2,1268432E-001	-8,718090100080251E-004	3,000000000000000E+000
2,0875931E-001	-8,891295013502987E-004	3,000000000000000E+000
2,0471971E-001	-8,879564080012214E-004	3,000000000000000E+000
2,0066208E-001	-9,069370784413021E-004	3,000000000000000E+000
1,9670522E-001	-9,085769097846794E-004	3,000000000000000E+000
1,9276220E-001	-9,144484937240564E-004	3,000000000000000E+000
1,8872258E-001	-9,182458033373435E-004	3,000000000000000E+000
1,8475193E-001	-9,316741306975018E-004	3,000000000000000E+000
1,8069962E-001	-9,270249806663557E-004	3,000000000000000E+000
1,7669290E-001	-9,430155926869067E-004	3,000000000000000E+000
1,7273605E-001	-9,434489616574476E-004	3,000000000000000E+000
1,6873041E-001	-9,585622604020077E-004	3,000000000000000E+000
1,6471095E-001	-9,617073805269756E-004	3,000000000000000E+000
1,6066818E-001	-9,684143296908587E-004	3,000000000000000E+000
1,5674739E-001	-9,762218577196585E-004	3,000000000000000E+000
1,5270461E-001	-9,870600582939093E-004	3,000000000000000E+000
1,4867882E-001	-9,889565641329964E-004	3,000000000000000E+000
1,4472514E-001	-9,972075721533507E-004	3,000000000000000E+000
1,4071101E-001	-1,004981933672550E-003	3,000000000000000E+000
1,3673972E-001	-1,020249002262913E-003	3,000000000000000E+000
1,3270819E-001	-1,018345009571122E-003	3,000000000000000E+000
1,2874284E-001	-1,036989345906209E-003	3,000000000000000E+000
1,2471811E-001	-1,035062571544483E-003	3,000000000000000E+000
1,2068065E-001	-1,050149207542374E-003	3,000000000000000E+000
1,1674394E-001	-1,051873227778641E-003	3,000000000000000E+000
1,1275101E-001	-1,068346315150844E-003	3,000000000000000E+000
1,0874644E-001	-1,068465380942345E-003	3,000000000000000E+000
1,0470684E-001	-1,086731999277144E-003	3,000000000000000E+000
1,0071393E-001	-1,092840235759032E-003	3,000000000000000E+000
9,6722059E-002	-1,098947735752314E-003	3,000000000000000E+000
9,2752472E-002	-1,110296892066903E-003	3,000000000000000E+000
8,8723488E-002	-1,127004851932050E-003	3,000000000000000E+000
8,4725268E-002	-1,128655199728976E-003	3,000000000000000E+000
8,0735527E-002	-1,142820655298200E-003	3,000000000000000E+000
7,6726697E-002	-1,148526467322546E-003	3,000000000000000E+000
7,2711498E-002	-1,165389295137072E-003	3,000000000000000E+000
6,8722822E-002	-1,170033047350850E-003	3,000000000000000E+000
6,4722478E-002	-1,185277036980818E-003	3,000000000000000E+000
6,4863570E-002	-1,926085994394147E-004	4,000000000000000E+000
6,8823598E-002	3,690921629287113E-005	4,000000000000000E+000
7,2833493E-002	1,705482762198946E-004	4,000000000000000E+000
7,6818988E-002	2,558722406183840E-004	4,000000000000000E+000
8,0853283E-002	3,410698926894955E-004	4,000000000000000E+000
8,4837712E-002	3,918199438872855E-004	4,000000000000000E+000
8,8817909E-002	4,539873160933038E-004	4,000000000000000E+000
9,2826746E-002	4,953861948538216E-004	4,000000000000000E+000
9,6811168E-002	5,329445110099316E-004	4,000000000000000E+000
1,0085076E-001	5,778422395518717E-004	4,000000000000000E+000
1,0481929E-001	6,190510349471049E-004	4,000000000000000E+000
1,0883872E-001	6,418970678404769E-004	4,000000000000000E+000
1,1280724E-001	6,756658999451980E-004	4,000000000000000E+000
1,1679274E-001	7,011576324455517E-004	4,000000000000000E+000
1,2085885E-001	7,320567503349470E-004	4,000000000000000E+000
1,2479874E-001	7,510478968065885E-004	4,000000000000000E+000
1,2883303E-001	7,844246951275724E-004	4,000000000000000E+000
1,3282913E-001	7,948323376088702E-004	4,000000000000000E+000
1,3684173E-001	8,255845484120630E-004	4,000000000000000E+000
1,4083831E-001	8,390782318370114E-004	4,000000000000000E+000
1,4484502E-001	8,640957754256270E-004	4,000000000000000E+000
1,4884324E-001	8,735520032469484E-004	4,000000000000000E+000
1,5283722E-001	8,932531578735772E-004	4,000000000000000E+000
1,5680256E-001	9,054485614157165E-004	4,000000000000000E+000
1,6078380E-001	9,237175120991500E-004	4,000000000000000E+000
1,6479371E-001	9,405842414438367E-004	4,000000000000000E+000
1,6880149E-001	9,593445371407442E-004	4,000000000000000E+000
1,7281032E-001	9,668371359886681E-004	4,000000000000000E+000
1,7682977E-001	9,877665752019010E-004	4,000000000000000E+000
1,8079934E-001	1,001451244654297E-003	4,000000000000000E+000
1,8481664E-001	1,018880311069857E-003	4,000000000000000E+000
1,8878093E-001	1,018942685159685E-003	4,000000000000000E+000
1,9283645E-001	1,040592185880221E-003	4,000000000000000E+000
1,9683996E-001	1,045588755476741E-003	4,000000000000000E+000
2,0077558E-001	1,071260793617477E-003	4,000000000000000E+000
2,0476216E-001	1,072397571718924E-003	4,000000000000000E+000
2,0883146E-001	1,093949981117878E-003	4,000000000000000E+000
2,1278299E-001	1,099437500535580E-003	4,000000000000000E+000
2,1680136E-001	1,114271710658045E-003	4,000000000000000E+000
2,2082505E-001	1,122987282643508E-003	4,000000000000000E+000
2,2481056E-001	1,135529949856901E-003	4,000000000000000E+000
2,2879395E-001	1,154381096663809E-003	4,000000000000000E+000
2,3283882E-001	1,176241686927692E-003	4,000000000000000E+000
2,3682112E-001	1,178009633602210E-003	4,000000000000000E+000
2,4085650E-001	1,200985823406543E-003	4,000000000000000E+000
2,4482502E-001	1,209598973218817E-003	4,000000000000000E+000
2,4884129E-001	1,229566026908015E-003	4,000000000000000E+000
2,5281402E-001	1,242908331699218E-003	4,000000000000000E+000
2,5681651E-001	1,259992708111425E-003	4,000000000000000E+000
2,6080510E-001	1,268662295793054E-003	4,000000000000000E+000
2,6478112E-001	1,293709351658533E-003	4,000000000000000E+000
2,6882178E-001	1,308786253772544E-003	4,000000000000000E+000
2,7281576E-001	1,325556678138030E-003	4,000000000000000E+000
2,7680230E-001	1,339769887838172E-003	4,000000000000000E+000
2,8082177E-001	1,365815441170492E-003	4,000000000000000E+000
2,8481042E-001	1,379008972031043E-003	4,000000000000000E+000
2,8878745E-001	1,395993149883534E-003	4,000000000000000E+000
2,9280475E-001	1,423537314015753E-003	4,000000000000000E+000
2,9684541E-001	1,448902456306508E-003	4,000000000000000E+000
3,0081180E-001	1,463429455961208E-003	4,000000000000000E+000
3,0479306E-001	1,489019445014297E-003	4,000000000000000E+000
3,0882099E-001	1,510509231458724E-003	4,000000000000000E+000
3,1279057E-001	1,540638913192435E-003	4,000000000000000E+000
3,1675592E-001	1,553967516951232E-003	4,000000000000000E+000
3,2078707E-001	1,588867340211034E-003	4,000000000000000E+000
3,2482240E-001	1,610978214928237E-003	4,000000000000000E+000
3,2877925E-001	1,634898940715684E-003	4,000000000000000E+000
3,3278382E-001	1,662828683577200E-003	4,000000000000000E+000
3,3679795E-001	1,700698324485633E-003	4,000000000000000E+000
3,4081209E-001	1,714603146764499E-003	4,000000000000000E+000
3,4484002E-001	1,757903676695635E-003	4,000000000000000E+000
3,4882128E-001	1,777664725118994E-003	4,000000000000000E+000
3,5278130E-001	1,805766636270741E-003	4,000000000000000E+000
3,5680819E-001	1,846020883089366E-003	4,000000000000000E+000
3,6078414E-001	1,885854581174771E-003	4,000000000000000E+000
3,6268401E-001	8,504385832903017E-004	4,000000000000000E+000
3,5866991E-001	3,887667674933749E-004	4,000000000000000E+000
3,5467592E-001	1,842875283607527E-004	4,000000000000000E+000
3,5070741E-001	4,161581093413775E-005	4,000000000000000E+000
3,4670496E-001	-5,874211845190744E-005	4,000000000000000E+000
3,4271628E-001	-1,555335506510068E-004	4,000000000000000E+000
3,3870956E-001	-2,138302727032670E-004	4,000000000000000E+000
3,3474007E-001	-2,894846559831186E-004	4,000000000000000E+000
3,3068126E-001	-3,368304514089625E-004	4,000000000000000E+000
3,2670215E-001	-3,859603923475380E-004	4,000000000000000E+000
3,2271454E-001	-4,370902484096316E-004	4,000000000000000E+000
3,1869403E-001	-4,814488755881842E-004	4,000000000000000E+000
3,1470218E-001	-5,143863954462741E-004	4,000000000000000E+000
3,1069335E-001	-5,573104296032680E-004	4,000000000000000E+000
3,0669409E-001	-5,741653603089864E-004	4,000000000000000E+000
3,0270860E-001	-6,109607238613552E-004	4,000000000000000E+000
2,9870504E-001	-6,382737335823381E-004	4,000000000000000E+000
2,9469410E-001	-6,630945883646065E-004	4,000000000000000E+000
2,9071280E-001	-6,874390133075579E-004	4,000000000000000E+000
2,8674322E-001	-7,118940125952504E-004	4,000000000000000E+000
2,8272167E-001	-7,276548019742868E-004	4,000000000000000E+000
2,7870226E-001	-7,507572854929432E-004	4,000000000000000E+000
2,7473584E-001	-7,624808920944051E-004	4,000000000000000E+000
2,7071744E-001	-7,843338199664783E-004	4,000000000000000E+000
2,6672775E-001	-7,936030193647001E-004	4,000000000000000E+000
2,6269871E-001	-8,054755931812853E-004	4,000000000000000E+000
2,5870794E-001	-8,209679045076300E-004	4,000000000000000E+000
2,5471181E-001	-8,343673050856355E-004	4,000000000000000E+000
2,5072530E-001	-8,398677758426239E-004	4,000000000000000E+000
2,4679072E-001	-8,581101216501956E-004	4,000000000000000E+000
2,4274899E-001	-8,621688469213914E-004	4,000000000000000E+000
2,3872638E-001	-8,773199857656649E-004	4,000000000000000E+000
2,3472179E-001	-8,863859425387276E-004	4,000000000000000E+000
2,3072673E-001	-8,981570413366356E-004	4,000000000000000E+000
2,2672109E-001	-8,985269397035825E-004	4,000000000000000E+000
2,2270906E-001	-9,167698398987022E-004	4,000000000000000E+000
2,1872781E-001	-9,131374806909485E-004	4,000000000000000E+000
2,1468082E-001	-9,313153714174422E-004	4,000000000000000E+000
2,1072538E-001	-9,303291065535305E-004	4,000000000000000E+000
2,0670453E-001	-9,421271791291465E-004	4,000000000000000E+000
2,0272642E-001	-9,480263427206065E-004	4,000000000000000E+000
1,9871974E-001	-9,518779917454083E-004	4,000000000000000E+000
1,9469818E-001	-9,595381595351698E-004	4,000000000000000E+000
1,9071692E-001	-9,715880133390564E-004	4,000000000000000E+000
1,8674310E-001	-9,732311231750324E-004	4,000000000000000E+000
1,8274593E-001	-9,918099986626454E-004	4,000000000000000E+000
1,7871588E-001	-9,909334799481761E-004	4,000000000000000E+000
1,7471553E-001	-1,004046720346971E-003	4,000000000000000E+000
1,7070140E-001	-1,004697284736694E-003	4,000000000000000E+000
1,6664909E-001	-1,014144362637092E-003	4,000000000000000E+000
1,6270179E-001	-1,017554586454670E-003	4,000000000000000E+000
1,5872794E-001	-1,034726263174816E-003	4,000000000000000E+000
1,5469259E-001	-1,036270898718309E-003	4,000000000000000E+000
1,5068057E-001	-1,050666421414692E-003	4,000000000000000E+000
1,4673646E-001	-1,050153144239667E-003	4,000000000000000E+000
1,4270748E-001	-1,064780482853099E-003	4,000000000000000E+000
1,3871455E-001	-1,066165654063093E-003	4,000000000000000E+000
1,3474073E-001	-1,071322276671983E-003	4,000000000000000E+000
1,3071172E-001	-1,079647725688387E-003	4,000000000000000E+000
1,2672094E-001	-1,097743304584314E-003	4,000000000000000E+000
1,2269619E-001	-1,100806671780048E-003	4,000000000000000E+000
1,1869479E-001	-1,114508602902920E-003	4,000000000000000E+000
1,1470822E-001	-1,119803399315400E-003	4,000000000000000E+000
1,1073440E-001	-1,137455595097791E-003	4,000000000000000E+000
1,0674255E-001	-1,134023851692385E-003	4,000000000000000E+000
1,0272628E-001	-1,146569940492212E-003	4,000000000000000E+000
9,8733366E-002	-1,157126249044838E-003	4,000000000000000E+000
9,4772279E-002	-1,171909863505454E-003	4,000000000000000E+000
9,0780407E-002	-1,173568086313831E-003	4,000000000000000E+000
8,6682014E-002	-1,188465658800566E-003	4,000000000000000E+000
8,2730934E-002	-1,194978283348500E-003	4,000000000000000E+000
7,8727402E-002	-1,211087819548857E-003	4,000000000000000E+000
7,4757814E-002	-1,215130107151782E-003	4,000000000000000E+000
7,0736252E-002	-1,227847402468021E-003	4,000000000000000E+000
6,6739090E-002	-1,239304219780024E-003	4,000000000000000E+000
6,3250087E-002	-1,190079826091489E-003	4,000000000000000E+000
6,6821843E-002	-1,216937017732141E-004	4,000000000000000E+000
7,0822179E-002	5,052968893753333E-005	4,000000000000000E+000
7,4802376E-002	1,616105166777767E-004	4,000000000000000E+000
7,8806959E-002	2,657169450899300E-004	4,000000000000000E+000
8,2822151E-002	3,243331706465182E-004	4,000000000000000E+000
8,6786166E-002	3,955134108532682E-004	4,000000000000000E+000
9,0822846E-002	4,435370614272755E-004	4,000000000000000E+000
9,4849721E-002	5,003203492311443E-004	4,000000000000000E+000
9,8821416E-002	5,335609913446294E-004	4,000000000000000E+000
1,0284616E-001	5,749921630114029E-004	4,000000000000000E+000
1,0680620E-001	6,106011167301226E-004	4,000000000000000E+000
1,1084367E-001	6,567032038152258E-004	4,000000000000000E+000
1,1483765E-001	6,811114531888891E-004	4,000000000000000E+000
1,1884754E-001	7,176083507618863E-004	4,000000000000000E+000
1,2279485E-001	7,414665904232401E-004	4,000000000000000E+000
1,2680687E-001	7,710037942295599E-004	4,000000000000000E+000
1,3084221E-001	7,904051744844834E-004	4,000000000000000E+000
1,3453706E-001	8,256628073771317E-004	4,000000000000000E+000
1,3475987E-001	1,070024562068284E-003	4,000000000000000E+000