File: fig_si_ecsa/CeO2/100.txt
EC-Lab ASCII FILE
Nb header lines : 59

Cyclic Voltammetry

Run on channel : 1 (SN 10336)
User :
CE vs. WE compliance from -10 V to 10 V
Electrode connection : standard
Potential control : Ewe
Ewe ctrl range : min = -2,50 V, max = 2,50 V
Safety Limits :
	Do not start on E overload
Acquisition started on : 10/13/2024 13:58:28.596
Technique started on : 10/13/2024 14:05:29.152
Loaded Setting File :  C:\EC-lab data\Neethu\Methods\CV_ECSA.mps
Saved on :
	File : CV_ECSA_04_CV_C01.mpr
	Directory : C:\EC-lab data\Neethu\2024_10_13_Ni90Fe10_CeO2\CV_ECSA\
	Host : 10.54.33.65
Device : VMP3 (SN 0498)
Address : USB
EC-Lab for windows v11.52 (software)
Internet server v11.52 (firmware)
Command interpretor v11.50 (firmware)
Electrode material :
Initial state :
Electrolyte :
Comments :
Electrode surface area : 0,001 cm²
Characteristic mass : 0,001 g
Volume (V) : 0,001 cm³
Thickness (t) : 0,000 cm
Diameter (d) : 0,000 cm
Cell constant (k=t/A) : 0,000 cm-1
Cycle Definition : Charge/Discharge alternance
Ei (V)              0,064
vs.                 Ref
dE/dt               100,000
dE/dt unit          mV/s
E1 (V)              0,364
vs.                 Ref
Step percent        50
N                   10
E range min (V)     -2,500
E range max (V)     2,500
I Range             Auto
I Range min         Unset
I Range max         Unset
I Range init        Unset
Bandwidth           5
E2 (V)              0,064
vs.                 Ref
nc cycles           3
Reverse Scan        1
Ef (V)              0,070
vs.                 Eoc

Ewe/V	<I>/mA	cycle number
6,5675117E-002	1,654355973005295E-002	1,000000000000000E+000
6,9736965E-002	-6,041264851930274E-005	1,000000000000000E+000
7,3690630E-002	1,039212361421155E-003	1,000000000000000E+000
7,7737659E-002	1,808373398287388E-003	1,000000000000000E+000
8,1733763E-002	2,230746858509120E-003	1,000000000000000E+000
8,5726678E-002	2,660958970712578E-003	1,000000000000000E+000
9,2729144E-002	3,888958322325706E-003	1,000000000000000E+000
9,6744336E-002	3,623261077033632E-003	1,000000000000000E+000
1,0074151E-001	3,843771261421762E-003	1,000000000000000E+000
1,0471957E-001	3,931607533660206E-003	1,000000000000000E+000
1,0875916E-001	4,140369862903365E-003	1,000000000000000E+000
1,1272451E-001	4,286710373788916E-003	1,000000000000000E+000
1,1667075E-001	4,383414377015366E-003	1,000000000000000E+000
1,2073898E-001	4,453797156909578E-003	1,000000000000000E+000
1,2472766E-001	4,591974604813420E-003	1,000000000000000E+000
1,2868769E-001	4,736148739337103E-003	1,000000000000000E+000
1,3273472E-001	4,903241133433781E-003	1,000000000000000E+000
1,3672446E-001	4,978330467161465E-003	1,000000000000000E+000
1,4071630E-001	5,120071380386240E-003	1,000000000000000E+000
1,4471136E-001	5,115338864723318E-003	1,000000000000000E+000
1,4870110E-001	5,262634389914145E-003	1,000000000000000E+000
1,5272371E-001	5,301684667857576E-003	1,000000000000000E+000
1,5673891E-001	5,444626335601171E-003	1,000000000000000E+000
1,6067350E-001	5,370653233209551E-003	1,000000000000000E+000
1,6467807E-001	5,594097568165228E-003	1,000000000000000E+000
1,6869751E-001	5,658062263036216E-003	1,000000000000000E+000
1,7270954E-001	5,864928299059921E-003	1,000000000000000E+000
1,7668444E-001	5,900498818340982E-003	1,000000000000000E+000
1,8070066E-001	6,069796309020603E-003	1,000000000000000E+000
1,8469572E-001	6,073750642422597E-003	1,000000000000000E+000
1,8870775E-001	6,099440169135864E-003	1,000000000000000E+000
1,9273248E-001	6,084363454849358E-003	1,000000000000000E+000
1,9670311E-001	6,253535454662743E-003	1,000000000000000E+000
2,0071091E-001	6,274821535448116E-003	1,000000000000000E+000
2,0469320E-001	6,479015623174059E-003	1,000000000000000E+000
2,0870839E-001	6,489428615168449E-003	1,000000000000000E+000
2,1273634E-001	6,659141613555339E-003	1,000000000000000E+000
2,1667728E-001	6,680659218141580E-003	1,000000000000000E+000
2,2074127E-001	6,805857429248552E-003	1,000000000000000E+000
2,2477768E-001	6,702383715390989E-003	1,000000000000000E+000
2,2868574E-001	6,986505060518122E-003	1,000000000000000E+000
2,3275188E-001	6,936861640699347E-003	1,000000000000000E+000
2,3675643E-001	7,137651226205188E-003	1,000000000000000E+000
2,4074513E-001	7,272365222080357E-003	1,000000000000000E+000
2,4472849E-001	7,386034618118889E-003	1,000000000000000E+000
2,4872775E-001	7,399963227928527E-003	1,000000000000000E+000
2,5271112E-001	7,481408681794879E-003	1,000000000000000E+000
2,5673485E-001	7,492194644631453E-003	1,000000000000000E+000
2,6069272E-001	7,695173592866131E-003	1,000000000000000E+000
2,6468036E-001	7,773603082265879E-003	1,000000000000000E+000
2,6871678E-001	8,005197912603387E-003	1,000000000000000E+000
2,7267575E-001	8,016842062513935E-003	1,000000000000000E+000
2,7669200E-001	8,140189848038298E-003	1,000000000000000E+000
2,8067324E-001	8,211406295433599E-003	1,000000000000000E+000
2,8471813E-001	8,458517237967422E-003	1,000000000000000E+000
2,8868243E-001	8,352692389356292E-003	1,000000000000000E+000
2,9272097E-001	8,616959951016051E-003	1,000000000000000E+000
2,9671600E-001	8,704726931884843E-003	1,000000000000000E+000
3,0071956E-001	8,964597268560451E-003	1,000000000000000E+000
3,0470076E-001	9,052113350157431E-003	1,000000000000000E+000
3,0868414E-001	9,221981328866848E-003	1,000000000000000E+000
3,1268346E-001	9,334330522203067E-003	1,000000000000000E+000
3,1667739E-001	9,404636136120401E-003	1,000000000000000E+000
3,2067668E-001	9,464538804119640E-003	1,000000000000000E+000
3,2468981E-001	9,687344616395456E-003	1,000000000000000E+000
3,2865933E-001	9,818142101317387E-003	1,000000000000000E+000
3,3268514E-001	9,967123155850816E-003	1,000000000000000E+000
3,3668235E-001	1,001376042000229E-002	1,000000000000000E+000
3,4066570E-001	1,022048009973437E-002	1,000000000000000E+000
3,4471378E-001	1,031766889516600E-002	1,000000000000000E+000
3,4873748E-001	1,052235754064496E-002	1,000000000000000E+000
3,5271871E-001	1,053399506781719E-002	1,000000000000000E+000
3,5671800E-001	1,081488711416673E-002	1,000000000000000E+000
3,6051205E-001	1,088563396600267E-002	1,000000000000000E+000
3,5783717E-001	3,267498945989358E-004	1,000000000000000E+000
3,5377002E-001	-6,676134088997449E-004	1,000000000000000E+000
3,4983644E-001	-1,324173283238549E-003	1,000000000000000E+000
3,4576401E-001	-1,873897446481951E-003	1,000000000000000E+000
3,4180608E-001	-2,306705341349384E-003	1,000000000000000E+000
3,3481207E-001	-2,343776384198757E-003	1,000000000000000E+000
3,3078206E-001	-3,082155578037309E-003	1,000000000000000E+000
3,2678068E-001	-3,223365815453377E-003	1,000000000000000E+000
3,2280150E-001	-3,683608113028133E-003	1,000000000000000E+000
3,1877571E-001	-3,811722395564870E-003	1,000000000000000E+000
3,1477860E-001	-4,083443466596570E-003	1,000000000000000E+000
3,1082487E-001	-4,213986251771620E-003	1,000000000000000E+000
3,0679801E-001	-4,284235324222299E-003	1,000000000000000E+000
3,0280617E-001	-4,393339887529782E-003	1,000000000000000E+000
2,9883868E-001	-4,563288397346495E-003	1,000000000000000E+000
2,9484683E-001	-4,635350036551231E-003	1,000000000000000E+000
2,9083058E-001	-4,843655484566816E-003	1,000000000000000E+000
2,8683448E-001	-4,974320039360049E-003	1,000000000000000E+000
2,8281400E-001	-5,046710108419783E-003	1,000000000000000E+000
2,7885821E-001	-5,021624280036303E-003	1,000000000000000E+000
2,7480480E-001	-5,173225813147525E-003	1,000000000000000E+000
2,7082041E-001	-5,251284665266373E-003	1,000000000000000E+000
2,6681790E-001	-5,390689255566223E-003	1,000000000000000E+000
2,6283878E-001	-5,289885995201360E-003	1,000000000000000E+000
2,5881299E-001	-5,468436242760305E-003	1,000000000000000E+000
2,5485611E-001	-5,535786179987345E-003	1,000000000000000E+000
2,5081545E-001	-5,676370266883182E-003	1,000000000000000E+000
2,4684483E-001	-5,739727135126785E-003	1,000000000000000E+000
2,4284342E-001	-5,817642837630227E-003	1,000000000000000E+000
2,3884517E-001	-5,737009270281590E-003	1,000000000000000E+000
2,3486184E-001	-5,824575389851816E-003	1,000000000000000E+000
2,3085301E-001	-5,942234176877184E-003	1,000000000000000E+000
2,2686112E-001	-6,055095147328569E-003	1,000000000000000E+000
2,2284167E-001	-6,094069409300573E-003	1,000000000000000E+000
2,1882331E-001	-6,172767778075954E-003	1,000000000000000E+000
2,1483675E-001	-6,086362501163312E-003	1,000000000000000E+000
2,1084701E-001	-6,198114588591513E-003	1,000000000000000E+000
2,0686363E-001	-6,187195588507971E-003	1,000000000000000E+000
2,0283785E-001	-6,386564757526178E-003	1,000000000000000E+000
1,9884703E-001	-6,182422446323069E-003	1,000000000000000E+000
1,9483076E-001	-6,395630162134881E-003	1,000000000000000E+000
1,9082619E-001	-6,416788652940222E-003	1,000000000000000E+000
1,8680041E-001	-6,548157239497684E-003	1,000000000000000E+000
1,8278518E-001	-6,530949645012787E-003	1,000000000000000E+000
1,7882726E-001	-6,639565907890839E-003	1,000000000000000E+000
1,7482163E-001	-6,583914564139863E-003	1,000000000000000E+000
1,7084885E-001	-6,633374387294879E-003	1,000000000000000E+000
1,6678591E-001	-6,630739488981685E-003	1,000000000000000E+000
1,6283651E-001	-6,805510588391225E-003	1,000000000000000E+000
1,5879585E-001	-6,868144398241488E-003	1,000000000000000E+000
1,5483156E-001	-6,888296229590210E-003	1,000000000000000E+000
1,5082379E-001	-6,924222175358503E-003	1,000000000000000E+000
1,4688711E-001	-7,001764343537303E-003	1,000000000000000E+000
1,4283052E-001	-6,959272235690137E-003	1,000000000000000E+000
1,3882594E-001	-7,089069870643352E-003	1,000000000000000E+000
1,3482770E-001	-6,968471940328666E-003	1,000000000000000E+000
1,3085283E-001	-7,164451182891052E-003	1,000000000000000E+000
1,2681960E-001	-7,134832066690751E-003	1,000000000000000E+000
1,2280333E-001	-7,307868277873941E-003	1,000000000000000E+000
1,1880406E-001	-7,313156200527568E-003	1,000000000000000E+000
1,1486100E-001	-7,449478227499612E-003	1,000000000000000E+000
1,1084367E-001	-7,400534886983196E-003	1,000000000000000E+000
1,0686243E-001	-7,427723826872845E-003	1,000000000000000E+000
1,0281222E-001	-7,400168812536218E-003	1,000000000000000E+000
9,8852180E-002	-7,589441497354202E-003	1,000000000000000E+000
9,4863512E-002	-7,657921936899764E-003	1,000000000000000E+000
9,0856798E-002	-7,714562207790210E-003	1,000000000000000E+000
8,6820386E-002	-7,698067038290894E-003	1,000000000000000E+000
8,2866713E-002	-7,834377535295450E-003	1,000000000000000E+000
7,8884408E-002	-7,802089412709587E-003	1,000000000000000E+000
7,4851170E-002	-7,959976924111142E-003	1,000000000000000E+000
7,0873104E-002	-7,870713603753937E-003	1,000000000000000E+000
6,6839866E-002	-8,051951945364844E-003	1,000000000000000E+000
6,3230991E-002	-8,174330461770296E-003	1,000000000000000E+000
6,5248646E-002	-7,806433847513767E-004	2,000000000000000E+000
6,9090925E-002	5,825912975675890E-004	2,000000000000000E+000
7,2997913E-002	1,355196629295587E-003	2,000000000000000E+000
7,6983422E-002	1,808814065043414E-003	2,000000000000000E+000
8,0915868E-002	2,062545717611414E-003	2,000000000000000E+000
8,4956527E-002	2,399754552243401E-003	2,000000000000000E+000
8,8936716E-002	2,625720511383010E-003	2,000000000000000E+000
9,2937060E-002	2,823853864659515E-003	2,000000000000000E+000
9,6891798E-002	2,904596983070310E-003	2,000000000000000E+000
1,0091442E-001	3,194761776386369E-003	2,000000000000000E+000
1,0491052E-001	3,382879912654367E-003	2,000000000000000E+000
1,0895436E-001	3,561538360170560E-003	2,000000000000000E+000
1,1289424E-001	3,762004273287142E-003	2,000000000000000E+000
1,1688503E-001	3,829467632385807E-003	2,000000000000000E+000
1,2090660E-001	3,940158194180005E-003	2,000000000000000E+000
1,2490376E-001	3,992301059042823E-003	2,000000000000000E+000
1,2889455E-001	4,278265519436310E-003	2,000000000000000E+000
1,3293521E-001	4,379714321759029E-003	2,000000000000000E+000
1,3689420E-001	4,440621924408753E-003	2,000000000000000E+000
1,4093482E-001	4,504504236036967E-003	2,000000000000000E+000
1,4492881E-001	4,621752925838038E-003	2,000000000000000E+000
1,4890796E-001	4,782121187519018E-003	2,000000000000000E+000
1,5288708E-001	4,860434365885652E-003	2,000000000000000E+000
1,5690228E-001	4,919584049073625E-003	2,000000000000000E+000
1,6091219E-001	4,920756444334993E-003	2,000000000000000E+000
1,6486374E-001	5,108248543466400E-003	2,000000000000000E+000
1,6891178E-001	5,287494105788146E-003	2,000000000000000E+000
1,7289093E-001	5,376553047729764E-003	2,000000000000000E+000
1,7687644E-001	5,517253814307205E-003	2,000000000000000E+000
1,8088739E-001	5,552331827655306E-003	2,000000000000000E+000
1,8493651E-001	5,619993331088667E-003	2,000000000000000E+000
1,8891461E-001	5,680292767162143E-003	2,000000000000000E+000
1,9291495E-001	5,828910996367816E-003	2,000000000000000E+000
1,9691741E-001	5,904824546936055E-003	2,000000000000000E+000
2,0090714E-001	6,021546172835054E-003	2,000000000000000E+000
2,0487462E-001	6,042456983575695E-003	2,000000000000000E+000
2,0892166E-001	6,080152930129195E-003	2,000000000000000E+000
2,1294212E-001	6,222887239952499E-003	2,000000000000000E+000
2,1690536E-001	6,320679132234868E-003	2,000000000000000E+000
2,2091737E-001	6,394190446573925E-003	2,000000000000000E+000
2,2490710E-001	6,391447412574483E-003	2,000000000000000E+000
2,2888729E-001	6,493149171243814E-003	2,000000000000000E+000
2,3295236E-001	6,579949543973116E-003	2,000000000000000E+000
2,3695377E-001	6,694022099206168E-003	2,000000000000000E+000
2,4090742E-001	6,950976060276531E-003	2,000000000000000E+000
2,4493535E-001	7,009794395546332E-003	2,000000000000000E+000
2,4891660E-001	7,095884088307188E-003	2,000000000000000E+000
2,5293285E-001	7,127465958749080E-003	2,000000000000000E+000
2,5690880E-001	7,208007499381608E-003	2,000000000000000E+000
2,6092190E-001	7,316013972336388E-003	2,000000000000000E+000
2,6489252E-001	7,455759791304833E-003	2,000000000000000E+000
2,6890662E-001	7,551579596313113E-003	2,000000000000000E+000
2,7291867E-001	7,725986285044596E-003	2,000000000000000E+000
2,7687657E-001	7,841605641361778E-003	2,000000000000000E+000
2,8086737E-001	7,952077389442543E-003	2,000000000000000E+000
2,8486985E-001	8,116877308768589E-003	2,000000000000000E+000
2,8891051E-001	8,058709995465436E-003	2,000000000000000E+000
2,9292142E-001	8,272707807514629E-003	2,000000000000000E+000
2,9686981E-001	8,431377013847774E-003	2,000000000000000E+000
3,0092323E-001	8,548449016719473E-003	2,000000000000000E+000
3,0486625E-001	8,738992180345462E-003	2,000000000000000E+000
3,0889311E-001	8,879958070691751E-003	2,000000000000000E+000
3,1286910E-001	9,059101061009461E-003	2,000000000000000E+000
3,1688324E-001	9,079030963928564E-003	2,000000000000000E+000
3,2087296E-001	9,217559331672355E-003	2,000000000000000E+000
3,2487223E-001	9,418344298966208E-003	2,000000000000000E+000
3,2886833E-001	9,553880830127287E-003	2,000000000000000E+000
3,3291009E-001	9,676370842498762E-003	2,000000000000000E+000
3,3688390E-001	9,784197354747476E-003	2,000000000000000E+000
3,4088951E-001	9,961451803165933E-003	2,000000000000000E+000
3,4491113E-001	1,012644848783065E-002	2,000000000000000E+000
3,4891674E-001	1,024355142241504E-002	2,000000000000000E+000
3,5290644E-001	1,030919590104737E-002	2,000000000000000E+000
3,5686019E-001	1,053221329493686E-002	2,000000000000000E+000
3,6085308E-001	1,073091071480628E-002	2,000000000000000E+000
3,6312324E-001	2,645379328012287E-003	2,000000000000000E+000
3,5885343E-001	6,052830247524673E-004	2,000000000000000E+000
3,5474065E-001	-6,851066726893698E-004	2,000000000000000E+000
3,5068727E-001	-1,514161084135896E-003	2,000000000000000E+000
3,4666884E-001	-2,116031246259802E-003	2,000000000000000E+000
3,4271413E-001	-2,531599008256705E-003	2,000000000000000E+000
3,3873078E-001	-2,880605693765886E-003	2,000000000000000E+000
3,3468583E-001	-3,152147785739440E-003	2,000000000000000E+000
3,3067387E-001	-3,477283060823939E-003	2,000000000000000E+000
3,2670218E-001	-3,542723072314388E-003	2,000000000000000E+000
3,2267952E-001	-3,893275574228014E-003	2,000000000000000E+000
3,1872904E-001	-4,049612235070912E-003	2,000000000000000E+000
3,1468627E-001	-4,196164992107579E-003	2,000000000000000E+000
3,1073183E-001	-4,411686341634108E-003	2,000000000000000E+000
3,0669302E-001	-4,529196832461606E-003	2,000000000000000E+000
3,0272451E-001	-4,632728904754094E-003	2,000000000000000E+000
2,9870716E-001	-4,757072753111252E-003	2,000000000000000E+000
2,9473227E-001	-4,831183740558721E-003	2,000000000000000E+000
2,9073936E-001	-5,015513670514324E-003	2,000000000000000E+000
2,8674856E-001	-5,092769357967555E-003	2,000000000000000E+000
2,8274077E-001	-5,206724957032616E-003	2,000000000000000E+000
2,7868527E-001	-5,247421827435664E-003	2,000000000000000E+000
2,7473587E-001	-5,370328318046319E-003	2,000000000000000E+000
2,7071854E-001	-5,418210342112498E-003	2,000000000000000E+000
2,6671180E-001	-5,506137210937179E-003	2,000000000000000E+000
2,6272419E-001	-5,491446263881152E-003	2,000000000000000E+000
2,5871646E-001	-5,634568257745623E-003	2,000000000000000E+000
2,5472137E-001	-5,661211067086280E-003	2,000000000000000E+000
2,5068817E-001	-5,788660282430774E-003	2,000000000000000E+000
2,4671537E-001	-5,886269873169800E-003	2,000000000000000E+000
2,4273418E-001	-5,956238904925831E-003	2,000000000000000E+000
2,3877199E-001	-5,921102280505394E-003	2,000000000000000E+000
2,3474301E-001	-5,927136509045403E-003	2,000000000000000E+000
2,3076071E-001	-6,066860621811203E-003	2,000000000000000E+000
2,2672004E-001	-6,126799183322052E-003	2,000000000000000E+000
2,2272924E-001	-6,168803391725916E-003	2,000000000000000E+000
2,1873419E-001	-6,223726237900948E-003	2,000000000000000E+000
2,1475402E-001	-6,183616064340106E-003	2,000000000000000E+000
2,1074942E-001	-6,305616727735879E-003	2,000000000000000E+000
2,0675968E-001	-6,285565251649416E-003	2,000000000000000E+000
2,0269147E-001	-6,447062037396867E-003	2,000000000000000E+000
1,9875687E-001	-6,331854309488932E-003	2,000000000000000E+000
1,9469392E-001	-6,458440619300926E-003	2,000000000000000E+000
1,9072859E-001	-6,539489697590578E-003	2,000000000000000E+000
1,8672296E-001	-6,598943405859033E-003	2,000000000000000E+000
1,8273640E-001	-6,676252078856706E-003	2,000000000000000E+000
1,7868300E-001	-6,730029286700273E-003	2,000000000000000E+000
1,7468053E-001	-6,727569119296575E-003	2,000000000000000E+000
1,7069505E-001	-6,721341908511619E-003	2,000000000000000E+000
1,6672440E-001	-6,775695354412557E-003	2,000000000000000E+000
1,6271238E-001	-6,914169855816804E-003	2,000000000000000E+000
1,5870993E-001	-6,945666983988810E-003	2,000000000000000E+000
1,5470745E-001	-6,990033468658396E-003	2,000000000000000E+000
1,5074635E-001	-7,034787253360250E-003	2,000000000000000E+000
1,4674918E-001	-7,128323796577074E-003	2,000000000000000E+000
1,4274992E-001	-7,120675192305068E-003	2,000000000000000E+000
1,3873045E-001	-7,217141937467697E-003	2,000000000000000E+000
1,3476618E-001	-7,088187819641059E-003	2,000000000000000E+000
1,3073191E-001	-7,279814500685045E-003	2,000000000000000E+000
1,2674323E-001	-7,307924883207306E-003	2,000000000000000E+000
1,2271316E-001	-7,412921486926877E-003	2,000000000000000E+000
1,1873510E-001	-7,489913384132602E-003	2,000000000000000E+000
1,1475068E-001	-7,560360370310548E-003	2,000000000000000E+000
1,1070789E-001	-7,594179614696078E-003	2,000000000000000E+000
1,0674573E-001	-7,584033724318318E-003	2,000000000000000E+000
1,0269766E-001	-7,498462610480289E-003	2,000000000000000E+000
9,8717466E-002	-7,648602143389209E-003	2,000000000000000E+000
9,4726659E-002	-7,764453559906905E-003	2,000000000000000E+000
9,0726323E-002	-7,842149534957973E-003	2,000000000000000E+000
8,6722791E-002	-7,803341503151567E-003	2,000000000000000E+000
8,2717143E-002	-7,873814882057378E-003	2,000000000000000E+000
7,8774072E-002	-7,847080764703473E-003	2,000000000000000E+000
7,4720696E-002	-8,004799410021704E-003	2,000000000000000E+000
7,0762776E-002	-7,916376048847765E-003	2,000000000000000E+000
6,6739090E-002	-8,111989306699874E-003	2,000000000000000E+000
6,3288271E-002	-8,209634106606245E-003	2,000000000000000E+000
6,5184996E-002	-8,166714178261957E-004	3,000000000000000E+000
6,9026209E-002	5,625381779484333E-004	3,000000000000000E+000
7,2961852E-002	1,283874397939956E-003	3,000000000000000E+000
7,6992959E-002	1,689402624934805E-003	3,000000000000000E+000
8,0937088E-002	1,986264633968761E-003	3,000000000000000E+000
8,4898181E-002	2,341089447428307E-003	3,000000000000000E+000
8,8959001E-002	2,550451072642723E-003	3,000000000000000E+000
9,2976309E-002	2,789895030218776E-003	3,000000000000000E+000
9,6932106E-002	2,855991295493587E-003	3,000000000000000E+000
1,0094518E-001	3,105609268459385E-003	3,000000000000000E+000
1,0499433E-001	3,330968935996582E-003	3,000000000000000E+000
1,0894056E-001	3,464802406395210E-003	3,000000000000000E+000
1,1289848E-001	3,675552499973714E-003	3,000000000000000E+000
1,1691368E-001	3,794822425738351E-003	3,000000000000000E+000
1,2090872E-001	3,898434181691196E-003	3,000000000000000E+000
1,2486876E-001	3,969943576521504E-003	3,000000000000000E+000
1,2891364E-001	4,202449782395784E-003	3,000000000000000E+000
1,3291399E-001	4,309698800676026E-003	3,000000000000000E+000
1,3690479E-001	4,392560896020678E-003	3,000000000000000E+000
1,4091256E-001	4,480629088195409E-003	3,000000000000000E+000
1,4490759E-001	4,610584492588221E-003	3,000000000000000E+000
1,4893129E-001	4,769948422714776E-003	3,000000000000000E+000
1,5291043E-001	4,846846958874565E-003	3,000000000000000E+000
1,5689166E-001	4,887674569343102E-003	3,000000000000000E+000
1,6085914E-001	4,879757244553837E-003	3,000000000000000E+000
1,6490191E-001	5,043253816337627E-003	3,000000000000000E+000
1,6889907E-001	5,207937952945926E-003	3,000000000000000E+000
1,7291744E-001	5,282959773871387E-003	3,000000000000000E+000
1,7694007E-001	5,394345965517793E-003	3,000000000000000E+000
1,8092452E-001	5,445611309066102E-003	3,000000000000000E+000
1,8491636E-001	5,542055349603003E-003	3,000000000000000E+000
1,8892626E-001	5,591377033852062E-003	3,000000000000000E+000
1,9287252E-001	5,698129559378807E-003	3,000000000000000E+000
1,9687814E-001	5,801089017445020E-003	3,000000000000000E+000
2,0092730E-001	5,931686558243315E-003	3,000000000000000E+000
2,0488523E-001	5,935184491843562E-003	3,000000000000000E+000
2,0892060E-001	6,089025099451348E-003	3,000000000000000E+000
2,1289968E-001	6,228224511788658E-003	3,000000000000000E+000
2,1690643E-001	6,294902726949686E-003	3,000000000000000E+000
2,2093222E-001	6,359092851198518E-003	3,000000000000000E+000
2,2491451E-001	6,370349232181764E-003	3,000000000000000E+000
2,2888623E-001	6,481623929479013E-003	3,000000000000000E+000
2,3292373E-001	6,594291923344528E-003	3,000000000000000E+000
2,3692724E-001	6,767966934906638E-003	3,000000000000000E+000
2,4093392E-001	6,919816738243573E-003	3,000000000000000E+000
2,4494490E-001	6,971554476573771E-003	3,000000000000000E+000
2,4891339E-001	7,068686387356166E-003	3,000000000000000E+000
2,5292754E-001	7,073577669669054E-003	3,000000000000000E+000
2,5692683E-001	7,126176928674482E-003	3,000000000000000E+000
2,6094097E-001	7,301255743287688E-003	3,000000000000000E+000
2,6488829E-001	7,458035781180827E-003	3,000000000000000E+000
2,6888648E-001	7,555646859448956E-003	3,000000000000000E+000
2,7290699E-001	7,678834441725874E-003	3,000000000000000E+000
2,7689251E-001	7,839059343192893E-003	3,000000000000000E+000
2,8086844E-001	7,903337310482234E-003	3,000000000000000E+000
2,8492498E-001	8,053540522168001E-003	3,000000000000000E+000
2,8891796E-001	8,022860517990525E-003	3,000000000000000E+000
2,9292142E-001	8,236261157435393E-003	3,000000000000000E+000
2,9693878E-001	8,419600512651337E-003	3,000000000000000E+000
3,0094868E-001	8,541537599133633E-003	3,000000000000000E+000
3,0488855E-001	8,728261103290934E-003	3,000000000000000E+000
3,0890799E-001	8,884922728207637E-003	3,000000000000000E+000
3,1285107E-001	9,143708675562995E-003	3,000000000000000E+000
3,1689700E-001	9,097555875390184E-003	3,000000000000000E+000
3,2088777E-001	9,194820462855441E-003	3,000000000000000E+000
3,2488284E-001	9,361130535479767E-003	3,000000000000000E+000
3,2888955E-001	9,515403412579976E-003	3,000000000000000E+000
3,3289099E-001	9,677464088276317E-003	3,000000000000000E+000
3,3685204E-001	9,819760034184201E-003	3,000000000000000E+000
3,4085238E-001	9,985868945982995E-003	3,000000000000000E+000
3,4489098E-001	1,012244832802231E-002	3,000000000000000E+000
3,4889233E-001	1,021155440280890E-002	3,000000000000000E+000
3,5285872E-001	1,025636151219569E-002	3,000000000000000E+000
3,5690686E-001	1,052065462944384E-002	3,000000000000000E+000
3,6088809E-001	1,068736123852433E-002	3,000000000000000E+000
3,6311686E-001	2,622885680794898E-003	3,000000000000000E+000
3,5885453E-001	5,814630222731598E-004	3,000000000000000E+000
3,5473850E-001	-7,375358821314451E-004	3,000000000000000E+000
3,5070848E-001	-1,581403348912616E-003	3,000000000000000E+000
3,4670916E-001	-2,182611989256752E-003	3,000000000000000E+000
3,4271201E-001	-2,539610402689296E-003	3,000000000000000E+000
3,3873716E-001	-2,915765341741556E-003	3,000000000000000E+000
3,3470494E-001	-3,173108289047377E-003	3,000000000000000E+000
3,3069721E-001	-3,526060206948178E-003	3,000000000000000E+000
3,2671174E-001	-3,583469738562883E-003	3,000000000000000E+000
3,2268271E-001	-3,885016580372588E-003	3,000000000000000E+000
3,1871527E-001	-4,048041520743714E-003	3,000000000000000E+000
3,1466928E-001	-4,262707223258779E-003	3,000000000000000E+000
3,1074291E-001	-4,444046033933606E-003	3,000000000000000E+000
3,0670255E-001	-4,515552353647430E-003	3,000000000000000E+000
3,0270538E-001	-4,634200459097140E-003	3,000000000000000E+000
2,9876548E-001	-4,732435671434741E-003	3,000000000000000E+000
2,9470679E-001	-4,856491098002548E-003	3,000000000000000E+000
2,9071704E-001	-5,030229728921129E-003	3,000000000000000E+000
2,8674537E-001	-5,139134232902270E-003	3,000000000000000E+000
2,8270683E-001	-5,248180930518861E-003	3,000000000000000E+000
2,7870435E-001	-5,261342078786889E-003	3,000000000000000E+000
2,7472526E-001	-5,371888120053965E-003	3,000000000000000E+000
2,7076840E-001	-5,459485676611704E-003	3,000000000000000E+000
2,6670334E-001	-5,552298843314109E-003	3,000000000000000E+000
2,6271573E-001	-5,480520327384691E-003	3,000000000000000E+000
2,5873768E-001	-5,626505606616962E-003	3,000000000000000E+000
2,5471500E-001	-5,687855133550735E-003	3,000000000000000E+000
2,5074118E-001	-5,767906826804378E-003	3,000000000000000E+000
2,4674404E-001	-5,897352912951537E-003	3,000000000000000E+000
2,4275327E-001	-5,954091967497424E-003	3,000000000000000E+000
2,3873805E-001	-5,936088609612651E-003	3,000000000000000E+000
2,3473452E-001	-5,972100939187715E-003	3,000000000000000E+000
2,3074058E-001	-6,155530431796142E-003	3,000000000000000E+000
2,2674339E-001	-6,210916575784882E-003	3,000000000000000E+000
2,2268681E-001	-6,269769317441370E-003	3,000000000000000E+000
2,1870556E-001	-6,302282980969798E-003	3,000000000000000E+000
2,1472326E-001	-6,325825546809900E-003	3,000000000000000E+000
2,1071441E-001	-6,416161004987452E-003	3,000000000000000E+000
2,0676923E-001	-6,393792686139918E-003	3,000000000000000E+000
2,0270523E-001	-6,465440415114335E-003	3,000000000000000E+000
1,9873352E-001	-6,339557896959964E-003	3,000000000000000E+000
1,9467483E-001	-6,493708307971233E-003	3,000000000000000E+000
1,9074874E-001	-6,545292153734582E-003	3,000000000000000E+000
1,8674628E-001	-6,619223232620319E-003	3,000000000000000E+000
1,8270774E-001	-6,690557721513973E-003	3,000000000000000E+000
1,7867026E-001	-6,780440493457683E-003	3,000000000000000E+000
1,7471659E-001	-6,723844523852052E-003	3,000000000000000E+000
1,7071944E-001	-6,752034575280633E-003	3,000000000000000E+000
1,6668832E-001	-6,819507009317438E-003	3,000000000000000E+000
1,6271767E-001	-6,941451026553608E-003	3,000000000000000E+000
1,5871629E-001	-7,007005954720702E-003	3,000000000000000E+000
1,5471381E-001	-7,058268000239155E-003	3,000000000000000E+000
1,5070073E-001	-7,086511036807991E-003	3,000000000000000E+000
1,4673753E-001	-7,166364331270499E-003	3,000000000000000E+000
1,4275521E-001	-7,157963916850141E-003	3,000000000000000E+000
1,3869014E-001	-7,223887243324290E-003	3,000000000000000E+000
1,3478422E-001	-7,121543651818565E-003	3,000000000000000E+000
1,3070856E-001	-7,303736890915208E-003	3,000000000000000E+000
1,2672307E-001	-7,301140981225085E-003	3,000000000000000E+000
1,2270681E-001	-7,426858779783461E-003	3,000000000000000E+000
1,1872131E-001	-7,473777401173699E-003	3,000000000000000E+000
1,1470930E-001	-7,543709696215539E-003	3,000000000000000E+000
1,1070895E-001	-7,518722333770683E-003	3,000000000000000E+000
1,0676801E-001	-7,554915292631541E-003	3,000000000000000E+000
1,0278146E-001	-7,533860923204967E-003	3,000000000000000E+000
9,8720647E-002	-7,686481636887427E-003	3,000000000000000E+000
9,4744697E-002	-7,734728426536691E-003	3,000000000000000E+000
9,0722077E-002	-7,873881837440394E-003	3,000000000000000E+000
8,6758852E-002	-7,835923445074666E-003	3,000000000000000E+000
8,2763806E-002	-7,953525647786161E-003	3,000000000000000E+000
7,8753926E-002	-8,008301591972772E-003	3,000000000000000E+000
7,4693114E-002	-8,117358456527474E-003	3,000000000000000E+000
7,0751101E-002	-8,006196777084085E-003	3,000000000000000E+000
6,6744395E-002	-8,146151827531783E-003	3,000000000000000E+000
6,3250087E-002	-8,190501481294632E-003	3,000000000000000E+000
6,5214701E-002	-8,716560844940525E-004	4,000000000000000E+000
6,9076076E-002	5,102132483645865E-004	4,000000000000000E+000
7,2927907E-002	1,233555033296509E-003	4,000000000000000E+000
7,6988727E-002	1,643829887547741E-003	4,000000000000000E+000
8,0936022E-002	1,951982071154310E-003	4,000000000000000E+000
8,4945917E-002	2,301853356483568E-003	4,000000000000000E+000
8,8936716E-002	2,520506697086002E-003	4,000000000000000E+000
9,2956156E-002	2,766764590382491E-003	4,000000000000000E+000
9,6909828E-002	2,813269294872751E-003	4,000000000000000E+000
1,0092185E-001	3,090951962197629E-003	4,000000000000000E+000
1,0492007E-001	3,297469629210865E-003	4,000000000000000E+000
1,0891192E-001	3,465747075703490E-003	4,000000000000000E+000
1,1284544E-001	3,686669194899475E-003	4,000000000000000E+000
1,1687867E-001	3,776939289916001E-003	4,000000000000000E+000
1,2089173E-001	3,887909418659147E-003	4,000000000000000E+000
1,2492817E-001	3,944563539537052E-003	4,000000000000000E+000
1,2893592E-001	4,207353660199774E-003	4,000000000000000E+000
1,3291188E-001	4,323587120274572E-003	4,000000000000000E+000
1,3693875E-001	4,452010742372517E-003	4,000000000000000E+000
1,4090514E-001	4,502761767879657E-003	4,000000000000000E+000
1,4493941E-001	4,598488110382792E-003	4,000000000000000E+000
1,4892918E-001	4,728655616620253E-003	4,000000000000000E+000
1,5290193E-001	4,811568460960799E-003	4,000000000000000E+000
1,5692773E-001	4,882453927873747E-003	4,000000000000000E+000
1,6091006E-001	4,914081817534902E-003	4,000000000000000E+000
1,6491996E-001	5,057824836613802E-003	4,000000000000000E+000
1,6890970E-001	5,210811735499502E-003	4,000000000000000E+000
1,7292699E-001	5,317270868545193E-003	4,000000000000000E+000
1,7685628E-001	5,479030762621240E-003	4,000000000000000E+000
1,8091497E-001	5,466981877867108E-003	4,000000000000000E+000
1,8489303E-001	5,537442798312378E-003	4,000000000000000E+000
1,8891990E-001	5,596769355179304E-003	4,000000000000000E+000
1,9292027E-001	5,736831713066867E-003	4,000000000000000E+000
1,9691104E-001	5,815857731957114E-003	4,000000000000000E+000
2,0087956E-001	5,927675425886682E-003	4,000000000000000E+000
2,0489371E-001	5,952375938553239E-003	4,000000000000000E+000
2,0888026E-001	6,085559157832508E-003	4,000000000000000E+000
2,1290818E-001	6,224533858282200E-003	4,000000000000000E+000
2,1689899E-001	6,315744783124605E-003	4,000000000000000E+000
2,2095874E-001	6,344063872853051E-003	4,000000000000000E+000
2,2486995E-001	6,308584510406959E-003	4,000000000000000E+000
2,2893609E-001	6,466209837930777E-003	4,000000000000000E+000
2,3291206E-001	6,620259048860256E-003	4,000000000000000E+000
2,3692194E-001	6,696529571248312E-003	4,000000000000000E+000
2,4091378E-001	6,841540512040278E-003	4,000000000000000E+000
2,4489717E-001	6,990275632738810E-003	4,000000000000000E+000
2,4895690E-001	7,095355400653924E-003	4,000000000000000E+000
2,5287557E-001	7,111001496216199E-003	4,000000000000000E+000
2,5693214E-001	7,185834206110409E-003	4,000000000000000E+000
2,6093140E-001	7,325784717169086E-003	4,000000000000000E+000
2,6492965E-001	7,429265566719939E-003	4,000000000000000E+000
2,6890346E-001	7,556754286876327E-003	4,000000000000000E+000
2,7291125E-001	7,641638815079593E-003	4,000000000000000E+000
2,7685750E-001	7,791024766952898E-003	4,000000000000000E+000
2,8091300E-001	7,983645245581636E-003	4,000000000000000E+000
2,8490484E-001	8,071971351455445E-003	4,000000000000000E+000
2,8891793E-001	8,066045092063150E-003	4,000000000000000E+000
2,9291615E-001	8,241569571610968E-003	4,000000000000000E+000
2,9691011E-001	8,381459330040447E-003	4,000000000000000E+000
3,0090308E-001	8,518648434902493E-003	4,000000000000000E+000
3,0485564E-001	8,750513470861060E-003	4,000000000000000E+000
3,0889419E-001	8,912017923850935E-003	4,000000000000000E+000
3,1285849E-001	9,122287772091474E-003	4,000000000000000E+000
3,1687897E-001	9,100625664965917E-003	4,000000000000000E+000
3,2085490E-001	9,239480574453618E-003	4,000000000000000E+000
3,2492530E-001	9,371601999899046E-003	4,000000000000000E+000
3,2888320E-001	9,514037644193091E-003	4,000000000000000E+000
3,3290264E-001	9,661434189992102E-003	4,000000000000000E+000
3,3688280E-001	9,774355212963820E-003	4,000000000000000E+000
3,4087148E-001	9,931024813138539E-003	4,000000000000000E+000
3,4486446E-001	1,009961841353088E-002	4,000000000000000E+000
3,4890720E-001	1,021939430453741E-002	4,000000000000000E+000
3,5288209E-001	1,029575160080442E-002	4,000000000000000E+000
3,5688668E-001	1,053142144519370E-002	4,000000000000000E+000
3,6086795E-001	1,071085249309872E-002	4,000000000000000E+000
3,6314020E-001	2,596563146274416E-003	4,000000000000000E+000
3,5883009E-001	5,777969148855200E-004	4,000000000000000E+000
3,5473534E-001	-7,775537450116724E-004	4,000000000000000E+000
3,5071591E-001	-1,572334421931970E-003	4,000000000000000E+000
3,4670070E-001	-2,124199902431829E-003	4,000000000000000E+000
3,4272900E-001	-2,546606748890345E-003	4,000000000000000E+000
3,3872443E-001	-2,901182302391832E-003	4,000000000000000E+000
3,3471873E-001	-3,129627569150095E-003	4,000000000000000E+000
3,3069932E-001	-3,485324427553366E-003	4,000000000000000E+000
3,2670218E-001	-3,619724079625380E-003	4,000000000000000E+000
3,2269013E-001	-3,948419846993689E-003	4,000000000000000E+000
3,1871209E-001	-4,116115250831678E-003	4,000000000000000E+000
3,1471914E-001	-4,308758708147141E-003	4,000000000000000E+000
3,1067500E-001	-4,464128661352720E-003	4,000000000000000E+000
3,0672377E-001	-4,544386579153861E-003	4,000000000000000E+000
3,0272657E-001	-4,677915770621918E-003	4,000000000000000E+000
2,9870290E-001	-4,755360918756585E-003	4,000000000000000E+000
2,9471955E-001	-4,865913728281157E-003	4,000000000000000E+000
2,9069477E-001	-5,053084155709542E-003	4,000000000000000E+000
2,8673899E-001	-5,183534773095730E-003	4,000000000000000E+000
2,8270048E-001	-5,235771259322057E-003	4,000000000000000E+000
2,7870435E-001	-5,259138394548127E-003	4,000000000000000E+000
2,7473375E-001	-5,396301936949961E-003	4,000000000000000E+000
2,7076098E-001	-5,466814592687616E-003	4,000000000000000E+000
2,6669061E-001	-5,567249879580537E-003	4,000000000000000E+000
2,6272315E-001	-5,468986187527947E-003	4,000000000000000E+000
2,5867718E-001	-5,663525767077855E-003	4,000000000000000E+000
2,5472987E-001	-5,740089871121894E-003	4,000000000000000E+000
2,5072208E-001	-5,835778886749812E-003	4,000000000000000E+000
2,4674828E-001	-5,967987059395635E-003	4,000000000000000E+000
2,4272674E-001	-6,015500220706183E-003	4,000000000000000E+000
2,3872426E-001	-5,980272904303613E-003	4,000000000000000E+000
2,3475362E-001	-6,007426974570573E-003	4,000000000000000E+000
2,3074585E-001	-6,141739899855250E-003	4,000000000000000E+000
2,2670946E-001	-6,213121921771522E-003	4,000000000000000E+000
2,2273135E-001	-6,233460080693462E-003	4,000000000000000E+000
2,1869496E-001	-6,306663972888274E-003	4,000000000000000E+000
2,1470523E-001	-6,266545102132814E-003	4,000000000000000E+000
2,1070381E-001	-6,403049380120721E-003	4,000000000000000E+000
2,0674695E-001	-6,420033894553624E-003	4,000000000000000E+000
2,0267022E-001	-6,489522253104937E-003	4,000000000000000E+000
1,9873354E-001	-6,343873181322131E-003	4,000000000000000E+000
1,9466422E-001	-6,498957457450952E-003	4,000000000000000E+000
1,9070736E-001	-6,521986684674609E-003	4,000000000000000E+000
1,8669325E-001	-6,629533324788398E-003	4,000000000000000E+000
1,8274488E-001	-6,740878703163172E-003	4,000000000000000E+000
1,7869784E-001	-6,810812848723584E-003	4,000000000000000E+000
1,7471130E-001	-6,780505609640396E-003	4,000000000000000E+000
1,7072792E-001	-6,753196664552277E-003	4,000000000000000E+000
1,6671273E-001	-6,776935409208004E-003	4,000000000000000E+000
1,6271874E-001	-6,877880268196648E-003	4,000000000000000E+000
1,5873328E-001	-6,998596451012390E-003	4,000000000000000E+000
1,5470956E-001	-7,043488539137666E-003	4,000000000000000E+000
1,5072408E-001	-7,055114613952640E-003	4,000000000000000E+000
1,4676192E-001	-7,162233350148480E-003	4,000000000000000E+000
1,4274673E-001	-7,227236936564095E-003	4,000000000000000E+000
1,3874002E-001	-7,263284079171047E-003	4,000000000000000E+000
1,3475238E-001	-7,165968760091346E-003	4,000000000000000E+000
1,3068734E-001	-7,306290880983876E-003	4,000000000000000E+000
1,2674852E-001	-7,325435158741594E-003	4,000000000000000E+000
1,2274394E-001	-7,424574172748361E-003	4,000000000000000E+000
1,1878920E-001	-7,463100968581993E-003	4,000000000000000E+000
1,1473899E-001	-7,563883176367706E-003	4,000000000000000E+000
1,1072487E-001	-7,545704652228688E-003	4,000000000000000E+000
1,0674255E-001	-7,550377235424496E-003	4,000000000000000E+000
1,0276767E-001	-7,473560152397495E-003	4,000000000000000E+000
9,8739743E-002	-7,654498408050520E-003	4,000000000000000E+000
9,4758481E-002	-7,758656493226393E-003	4,000000000000000E+000
9,0733752E-002	-7,872367882454351E-003	4,000000000000000E+000
8,6760975E-002	-7,882328880239348E-003	4,000000000000000E+000
8,2764879E-002	-8,003802165654217E-003	4,000000000000000E+000
7,8778319E-002	-8,002003838353394E-003	4,000000000000000E+000
7,4728116E-002	-8,131646353932473E-003	4,000000000000000E+000
7,0792489E-002	-8,026457194419884E-003	4,000000000000000E+000
6,6796377E-002	-8,109688787145476E-003	4,000000000000000E+000
6,3326463E-002	-8,277660701423883E-003	4,000000000000000E+000
6,5261371E-002	-8,759112928089455E-004	4,000000000000000E+000
6,9087744E-002	5,084853858079458E-004	4,000000000000000E+000
7,2978824E-002	1,242910433196211E-003	4,000000000000000E+000
7,6942042E-002	1,686357178692161E-003	4,000000000000000E+000
8,0972090E-002	1,998122282909919E-003	4,000000000000000E+000
8,4918335E-002	2,311597880381877E-003	4,000000000000000E+000
8,8918678E-002	2,541083407979598E-003	4,000000000000000E+000
9,2914782E-002	2,732275210291846E-003	4,000000000000000E+000
9,6932113E-002	2,820415981962782E-003	4,000000000000000E+000
1,0093775E-001	3,102622302928182E-003	4,000000000000000E+000
1,0489886E-001	3,356401770361117E-003	4,000000000000000E+000
1,0894905E-001	3,488203434244497E-003	4,000000000000000E+000
1,1288469E-001	3,644622792408979E-003	4,000000000000000E+000
1,1692216E-001	3,749357534616167E-003	4,000000000000000E+000
1,2092145E-001	3,896527475565880E-003	4,000000000000000E+000
1,2493666E-001	3,946040251321399E-003	4,000000000000000E+000
1,2893169E-001	4,204387951580846E-003	4,000000000000000E+000
1,3292143E-001	4,298722042019823E-003	4,000000000000000E+000
1,3462621E-001	4,321211017668247E-003	4,000000000000000E+000