File: fig_si_ecsa/CeO2/20.txt
EC-Lab ASCII FILE
Nb header lines : 59

Cyclic Voltammetry

Run on channel : 1 (SN 10336)
User :
CE vs. WE compliance from -10 V to 10 V
Electrode connection : standard
Potential control : Ewe
Ewe ctrl range : min = -2,50 V, max = 2,50 V
Safety Limits :
	Do not start on E overload
Acquisition started on : 10/13/2024 13:58:28.596
Technique started on : 10/13/2024 14:02:35.906
Loaded Setting File :  C:\EC-lab data\Neethu\Methods\CV_ECSA.mps
Saved on :
	File : CV_ECSA_02_CV_C01.mpr
	Directory : C:\EC-lab data\Neethu\2024_10_13_Ni90Fe10_CeO2\CV_ECSA\
	Host : 10.54.33.65
Device : VMP3 (SN 0498)
Address : USB
EC-Lab for windows v11.52 (software)
Internet server v11.52 (firmware)
Command interpretor v11.50 (firmware)
Electrode material :
Initial state :
Electrolyte :
Comments :
Electrode surface area : 0,001 cm²
Characteristic mass : 0,001 g
Volume (V) : 0,001 cm³
Thickness (t) : 0,000 cm
Diameter (d) : 0,000 cm
Cell constant (k=t/A) : 0,000 cm-1
Cycle Definition : Charge/Discharge alternance
Ei (V)              0,064
vs.                 Ref
dE/dt               20,000
dE/dt unit          mV/s
E1 (V)              0,364
vs.                 Ref
Step percent        50
N                   10
E range min (V)     -2,500
E range max (V)     2,500
I Range             Auto
I Range min         Unset
I Range max         Unset
I Range init        Unset
Bandwidth           5
E2 (V)              0,064
vs.                 Ref
nc cycles           3
Reverse Scan        1
Ef (V)              0,070
vs.                 Eoc

Ewe/V	<I>/mA	cycle number
6,3250087E-002	9,265850298106670E-003	1,000000000000000E+000
6,7303441E-002	-2,203530382166823E-003	1,000000000000000E+000
7,1283638E-002	-1,170831626815789E-003	1,000000000000000E+000
7,5281858E-002	-7,085043339429796E-004	1,000000000000000E+000
7,9325698E-002	-4,815099438373084E-004	1,000000000000000E+000
8,3331347E-002	-2,316929578051303E-004	1,000000000000000E+000
8,7315783E-002	-1,218182664565067E-004	1,000000000000000E+000
9,1324620E-002	-6,722819815901296E-007	1,000000000000000E+000
9,5291011E-002	1,215023847809906E-004	1,000000000000000E+000
9,9321060E-002	1,901648288535566E-004	1,000000000000000E+000
1,0330126E-001	2,521128329775547E-004	1,000000000000000E+000
1,0725704E-001	2,927561575137148E-004	1,000000000000000E+000
1,1127983E-001	3,747916510382665E-004	1,000000000000000E+000
1,1531183E-001	3,707799186048323E-004	1,000000000000000E+000
1,1930478E-001	4,707568316209502E-004	1,000000000000000E+000
1,2324782E-001	4,663679782323819E-004	1,000000000000000E+000
1,2728953E-001	6,113240209978631E-004	1,000000000000000E+000
1,3128351E-001	6,000084500951876E-004	1,000000000000000E+000
1,3528174E-001	6,418809558386704E-004	1,000000000000000E+000
1,3927998E-001	6,698204603657765E-004	1,000000000000000E+000
1,4329410E-001	6,693105164298761E-004	1,000000000000000E+000
1,4727536E-001	7,314206593407478E-004	1,000000000000000E+000
1,5130222E-001	7,345273927933643E-004	1,000000000000000E+000
1,5525694E-001	7,263008279004965E-004	1,000000000000000E+000
1,5927957E-001	7,680259065333886E-004	1,000000000000000E+000
1,6328628E-001	8,288155309788547E-004	1,000000000000000E+000
1,6728875E-001	8,604807369381341E-004	1,000000000000000E+000
1,7129971E-001	8,973070464266888E-004	1,000000000000000E+000
1,7523852E-001	8,839400552292133E-004	1,000000000000000E+000
1,7922932E-001	9,344222169063304E-004	1,000000000000000E+000
1,8325196E-001	9,380004557560540E-004	1,000000000000000E+000
1,8726395E-001	9,619961852809812E-004	1,000000000000000E+000
1,9126323E-001	9,849749919828895E-004	1,000000000000000E+000
1,9523071E-001	9,512141844222957E-004	1,000000000000000E+000
1,9925864E-001	9,663438069630360E-004	1,000000000000000E+000
2,0328760E-001	1,027092139511129E-003	1,000000000000000E+000
2,0730281E-001	1,046663653343983E-003	1,000000000000000E+000
2,1130638E-001	1,087207032086153E-003	1,000000000000000E+000
2,1527168E-001	1,077574291147486E-003	1,000000000000000E+000
2,1922639E-001	1,131829325938978E-003	1,000000000000000E+000
2,2326814E-001	1,149075261583601E-003	1,000000000000000E+000
2,2726105E-001	1,209508274179689E-003	1,000000000000000E+000
2,3132610E-001	1,198905949140506E-003	1,000000000000000E+000
2,3531581E-001	1,231107636545790E-003	1,000000000000000E+000
2,3926422E-001	1,209119117691919E-003	1,000000000000000E+000
2,4328259E-001	1,311227119660750E-003	1,000000000000000E+000
2,4731264E-001	1,301308706755606E-003	1,000000000000000E+000
2,5130236E-001	1,351802693568088E-003	1,000000000000000E+000
2,5525498E-001	1,379889542860192E-003	1,000000000000000E+000
2,5928822E-001	1,391594193886773E-003	1,000000000000000E+000
2,6329386E-001	1,392283872430906E-003	1,000000000000000E+000
2,6727194E-001	1,376662015828783E-003	1,000000000000000E+000
2,7129668E-001	1,525467455908092E-003	1,000000000000000E+000
2,7526519E-001	1,435255796796712E-003	1,000000000000000E+000
2,7925071E-001	1,532243847489345E-003	1,000000000000000E+000
2,8330195E-001	1,536906795822520E-003	1,000000000000000E+000
2,8725561E-001	1,604823525414963E-003	1,000000000000000E+000
2,9125172E-001	1,646147822253014E-003	1,000000000000000E+000
2,9528391E-001	1,705923480172982E-003	1,000000000000000E+000
2,9927787E-001	1,741438120697478E-003	1,000000000000000E+000
3,0325595E-001	1,751120763388934E-003	1,000000000000000E+000
3,0728811E-001	1,785058489347680E-003	1,000000000000000E+000
3,1126407E-001	1,872823793763490E-003	1,000000000000000E+000
3,1524318E-001	1,843230716718103E-003	1,000000000000000E+000
3,1926793E-001	1,885869494128865E-003	1,000000000000000E+000
3,2326296E-001	1,985642805097826E-003	1,000000000000000E+000
3,2724634E-001	2,000742999472192E-003	1,000000000000000E+000
3,3126366E-001	2,051266442625398E-003	1,000000000000000E+000
3,3526403E-001	2,082978911655826E-003	1,000000000000000E+000
3,3927286E-001	2,128420686521745E-003	1,000000000000000E+000
3,4327745E-001	2,222573380263547E-003	1,000000000000000E+000
3,4721199E-001	2,241708590763331E-003	1,000000000000000E+000
3,5130250E-001	2,285573590025125E-003	1,000000000000000E+000
3,5524240E-001	2,361952750005804E-003	1,000000000000000E+000
3,5919929E-001	2,399197382112986E-003	1,000000000000000E+000
3,6294186E-001	2,469374245265492E-003	1,000000000000000E+000
3,6074913E-001	1,598851834117978E-003	1,000000000000000E+000
3,5675302E-001	1,151957869877960E-003	1,000000000000000E+000
3,5276750E-001	9,254971143861784E-004	1,000000000000000E+000
3,4874067E-001	6,904265955435460E-004	1,000000000000000E+000
3,4477213E-001	6,512098409003817E-004	1,000000000000000E+000
3,4072617E-001	4,125050222346192E-004	1,000000000000000E+000
3,3673429E-001	3,717319883031044E-004	1,000000000000000E+000
3,3274245E-001	2,629154998969696E-004	1,000000000000000E+000
3,2871559E-001	1,496511937165010E-004	1,000000000000000E+000
3,2473859E-001	3,988854183818778E-005	1,000000000000000E+000
3,2073823E-001	2,329694911993463E-005	1,000000000000000E+000
3,1673363E-001	-7,217910191604539E-005	1,000000000000000E+000
3,1275982E-001	-1,399690951765714E-004	1,000000000000000E+000
3,0874673E-001	-1,267406333024862E-004	1,000000000000000E+000
3,0476549E-001	-1,898794662784395E-004	1,000000000000000E+000
3,0077681E-001	-1,546831224522466E-004	1,000000000000000E+000
2,9673296E-001	-2,118708992350513E-004	1,000000000000000E+000
2,9274112E-001	-3,356254652733992E-004	1,000000000000000E+000
2,8875139E-001	-3,226033089521047E-004	1,000000000000000E+000
2,8475317E-001	-3,468849636023893E-004	1,000000000000000E+000
2,8075919E-001	-3,511234962035002E-004	1,000000000000000E+000
2,7674928E-001	-3,825116545057329E-004	1,000000000000000E+000
2,7271712E-001	-4,369817986129322E-004	1,000000000000000E+000
2,6874858E-001	-4,612251527044454E-004	1,000000000000000E+000
2,6475674E-001	-4,751698419972351E-004	1,000000000000000E+000
2,6078153E-001	-5,770812409312855E-004	1,000000000000000E+000
2,5677088E-001	-5,810565638529174E-004	1,000000000000000E+000
2,5275356E-001	-5,317740646357070E-004	1,000000000000000E+000
2,4880202E-001	-5,412178616771368E-004	1,000000000000000E+000
2,4479423E-001	-5,844668098478455E-004	1,000000000000000E+000
2,4075571E-001	-6,121175232086276E-004	1,000000000000000E+000
2,3680206E-001	-6,250659914039055E-004	1,000000000000000E+000
2,3276667E-001	-5,873701349914714E-004	1,000000000000000E+000
2,2872496E-001	-5,803992909797521E-004	1,000000000000000E+000
2,2472675E-001	-6,923460648901409E-004	1,000000000000000E+000
2,2077097E-001	-6,886262595900122E-004	1,000000000000000E+000
2,1674727E-001	-7,139101255267677E-004	1,000000000000000E+000
2,1277027E-001	-7,305046040389472E-004	1,000000000000000E+000
2,0879325E-001	-7,140840514155040E-004	1,000000000000000E+000
2,0476319E-001	-8,188240941072542E-004	1,000000000000000E+000
2,0076391E-001	-8,053893226908143E-004	1,000000000000000E+000
1,9680177E-001	-7,916745003395016E-004	1,000000000000000E+000
1,9280778E-001	-8,677293374717045E-004	1,000000000000000E+000
1,8874697E-001	-8,707594004978038E-004	1,000000000000000E+000
1,8474773E-001	-8,355718891850609E-004	1,000000000000000E+000
1,8074948E-001	-8,988462919593005E-004	1,000000000000000E+000
1,7673427E-001	-9,128205066417650E-004	1,000000000000000E+000
1,7275304E-001	-9,360617007974654E-004	1,000000000000000E+000
1,6879511E-001	-9,683252337161470E-004	1,000000000000000E+000
1,6474384E-001	-9,799974500205473E-004	1,000000000000000E+000
1,6073607E-001	-9,277349378917438E-004	1,000000000000000E+000
1,5678135E-001	-9,854886820229933E-004	1,000000000000000E+000
1,5277994E-001	-9,448187439139236E-004	1,000000000000000E+000
1,4877640E-001	-1,036878639465780E-003	1,000000000000000E+000
1,4477818E-001	-1,006103619126279E-003	1,000000000000000E+000
1,4076936E-001	-1,048037996729029E-003	1,000000000000000E+000
1,3675839E-001	-1,053703170593206E-003	1,000000000000000E+000
1,3275805E-001	-1,053428953161564E-003	1,000000000000000E+000
1,2876301E-001	-1,094508592494230E-003	1,000000000000000E+000
1,2475949E-001	-1,105921365588406E-003	1,000000000000000E+000
1,2075276E-001	-1,093471081663591E-003	1,000000000000000E+000
1,1674394E-001	-1,134568342792960E-003	1,000000000000000E+000
1,1274146E-001	-1,157800629125967E-003	1,000000000000000E+000
1,0876235E-001	-1,217393680130277E-003	1,000000000000000E+000
1,0477261E-001	-1,227055588203628E-003	1,000000000000000E+000
1,0077438E-001	-1,221699970478263E-003	1,000000000000000E+000
9,6781470E-002	-1,239040176728763E-003	1,000000000000000E+000
9,2782184E-002	-1,266319508222525E-003	1,000000000000000E+000
8,8776521E-002	-1,280558960759119E-003	1,000000000000000E+000
8,4773004E-002	-1,328049347985480E-003	1,000000000000000E+000
8,0824636E-002	-1,320701175394050E-003	1,000000000000000E+000
7,6774433E-002	-1,335503684079718E-003	1,000000000000000E+000
7,2777271E-002	-1,368931516497947E-003	1,000000000000000E+000
6,8749346E-002	-1,404086552375471E-003	1,000000000000000E+000
6,4798854E-002	-1,391527098332042E-003	1,000000000000000E+000
6,4793557E-002	-1,233996961673259E-003	2,000000000000000E+000
6,8779044E-002	-8,594173734174399E-004	2,000000000000000E+000
7,2774090E-002	-6,505590720196214E-004	2,000000000000000E+000
7,6776564E-002	-4,950596893927971E-004	2,000000000000000E+000
8,0847971E-002	-3,272338561512485E-004	2,000000000000000E+000
8,4784672E-002	-2,322028687907966E-004	2,000000000000000E+000
8,8803045E-002	-1,911026627365372E-004	2,000000000000000E+000
9,2797033E-002	-1,002247341093439E-004	2,000000000000000E+000
9,6788891E-002	-4,660268100441064E-006	2,000000000000000E+000
1,0082000E-001	2,622087652492098E-005	2,000000000000000E+000
1,0478533E-001	1,032542895995059E-004	2,000000000000000E+000
1,0878145E-001	1,447759749832285E-004	2,000000000000000E+000
1,1281680E-001	1,411711819703973E-004	2,000000000000000E+000
1,1678425E-001	2,490916329204798E-004	2,000000000000000E+000
1,2078991E-001	2,981913920578972E-004	2,000000000000000E+000
1,2480510E-001	3,618489517238982E-004	2,000000000000000E+000
1,2882242E-001	3,604105782465520E-004	2,000000000000000E+000
1,3279305E-001	3,986693598023905E-004	2,000000000000000E+000
1,3680083E-001	4,788389041584231E-004	2,000000000000000E+000
1,4080223E-001	4,746298525796448E-004	2,000000000000000E+000
1,4475910E-001	5,508526900046959E-004	2,000000000000000E+000
1,4877005E-001	6,061481675277277E-004	2,000000000000000E+000
1,5277888E-001	5,464432302283578E-004	2,000000000000000E+000
1,5679832E-001	6,311696658898372E-004	2,000000000000000E+000
1,6077852E-001	6,695787955053414E-004	2,000000000000000E+000
1,6476825E-001	6,861054826509255E-004	2,000000000000000E+000
1,6878450E-001	7,065111873527236E-004	2,000000000000000E+000
1,7278697E-001	7,961069350972992E-004	2,000000000000000E+000
1,7679369E-001	7,514608564802234E-004	2,000000000000000E+000
1,8080041E-001	7,704369891143870E-004	2,000000000000000E+000
1,8475938E-001	7,720551681173931E-004	2,000000000000000E+000
1,8877988E-001	8,317070348514088E-004	2,000000000000000E+000
1,9275688E-001	9,191363644142116E-004	2,000000000000000E+000
1,9680071E-001	8,652734351012811E-004	2,000000000000000E+000
2,0078197E-001	8,973394685169861E-004	2,000000000000000E+000
2,0477594E-001	9,530357437210184E-004	2,000000000000000E+000
2,0877735E-001	9,602925380797264E-004	2,000000000000000E+000
2,1277767E-001	9,366947013370874E-004	2,000000000000000E+000
2,1679288E-001	9,795073653583192E-004	2,000000000000000E+000
2,2076246E-001	1,044650550915730E-003	2,000000000000000E+000
2,2479464E-001	1,079042105090967E-003	2,000000000000000E+000
2,2876422E-001	1,034682057386951E-003	2,000000000000000E+000
2,3281126E-001	1,082458280492912E-003	2,000000000000000E+000
2,3681478E-001	1,188005990105396E-003	2,000000000000000E+000
2,4078541E-001	1,174989759508421E-003	2,000000000000000E+000
2,4478999E-001	1,212081398854801E-003	2,000000000000000E+000
2,4882430E-001	1,232133384022479E-003	2,000000000000000E+000
2,5279918E-001	1,276175157381996E-003	2,000000000000000E+000
2,5680485E-001	1,351142329339281E-003	2,000000000000000E+000
2,6075354E-001	1,356726665665331E-003	2,000000000000000E+000
2,6478750E-001	1,362888285914075E-003	2,000000000000000E+000
2,6875812E-001	1,413358610820806E-003	2,000000000000000E+000
2,7279770E-001	1,468209082701497E-003	2,000000000000000E+000
2,7675882E-001	1,496755690503185E-003	2,000000000000000E+000
2,8074113E-001	1,518859219501144E-003	2,000000000000000E+000
2,8480512E-001	1,535029318675794E-003	2,000000000000000E+000
2,8879911E-001	1,586083281086684E-003	2,000000000000000E+000
2,9276660E-001	1,634873488645931E-003	2,000000000000000E+000
2,9680189E-001	1,621978105955832E-003	2,000000000000000E+000
3,0081502E-001	1,591695256660456E-003	2,000000000000000E+000
3,0476338E-001	1,700850753843915E-003	2,000000000000000E+000
3,0875102E-001	1,793576798796170E-003	2,000000000000000E+000
3,1275132E-001	1,839183710012971E-003	2,000000000000000E+000
3,1671244E-001	1,866834396794196E-003	2,000000000000000E+000
3,2070324E-001	1,908992838912237E-003	2,000000000000000E+000
3,2475662E-001	1,956223807311565E-003	2,000000000000000E+000
3,2874209E-001	1,969944416537653E-003	2,000000000000000E+000
3,3272868E-001	2,062735141167761E-003	2,000000000000000E+000
3,3676085E-001	2,039815322522946E-003	2,000000000000000E+000
3,4076542E-001	2,109644946392141E-003	2,000000000000000E+000
3,4480610E-001	2,171716866103925E-003	2,000000000000000E+000
3,4877989E-001	2,228960570829698E-003	2,000000000000000E+000
3,5275793E-001	2,284881017220446E-003	2,000000000000000E+000
3,5676894E-001	2,376156647827610E-003	2,000000000000000E+000
3,6075655E-001	2,387920436039748E-003	2,000000000000000E+000
3,6274344E-001	2,267496451875356E-003	2,000000000000000E+000
3,5873565E-001	1,326430395406704E-003	2,000000000000000E+000
3,5474914E-001	9,703730244028652E-004	2,000000000000000E+000
3,5074031E-001	7,743571469139496E-004	2,000000000000000E+000
3,4673357E-001	5,721190711811793E-004	2,000000000000000E+000
3,4274173E-001	4,589962609400219E-004	2,000000000000000E+000
3,3877110E-001	3,649114148376797E-004	2,000000000000000E+000
3,3475268E-001	2,462030624715049E-004	2,000000000000000E+000
3,3074915E-001	1,979816539224642E-004	2,000000000000000E+000
3,2674456E-001	3,045646431008560E-005	2,000000000000000E+000
3,2275909E-001	-1,647392441418146E-005	2,000000000000000E+000
3,1872270E-001	-3,701812960975470E-005	2,000000000000000E+000
3,1474140E-001	-6,692071473416408E-005	2,000000000000000E+000
3,1072304E-001	-1,222662970079641E-004	2,000000000000000E+000
3,0676088E-001	-1,650377627918764E-004	2,000000000000000E+000
3,0276904E-001	-1,956595505050611E-004	2,000000000000000E+000
2,9873472E-001	-2,342455166028778E-004	2,000000000000000E+000
2,9475352E-001	-2,871181287126224E-004	2,000000000000000E+000
2,9071921E-001	-3,506047474999214E-004	2,000000000000000E+000
2,8675067E-001	-3,529981184126683E-004	2,000000000000000E+000
2,8274712E-001	-3,732888602093623E-004	2,000000000000000E+000
2,7870968E-001	-4,844928952589156E-004	2,000000000000000E+000
2,7472630E-001	-4,710875389011774E-004	2,000000000000000E+000
2,7074608E-001	-5,116749108074815E-004	2,000000000000000E+000
2,6674470E-001	-4,901815949383322E-004	2,000000000000000E+000
2,6276237E-001	-5,406431309388088E-004	2,000000000000000E+000
2,5880980E-001	-5,724616315757154E-004	2,000000000000000E+000
2,5473729E-001	-6,053058292210317E-004	2,000000000000000E+000
2,5078151E-001	-5,891268992349477E-004	2,000000000000000E+000
2,4681723E-001	-6,147614757436616E-004	2,000000000000000E+000
2,4279779E-001	-6,981261306304096E-004	2,000000000000000E+000
2,3873697E-001	-6,572646778093072E-004	2,000000000000000E+000
2,3474614E-001	-6,763380809776138E-004	2,000000000000000E+000
2,3073097E-001	-6,984208911473173E-004	2,000000000000000E+000
2,2673169E-001	-6,901501538036578E-004	2,000000000000000E+000
2,2277910E-001	-7,184463574495346E-004	2,000000000000000E+000
2,1875751E-001	-7,929330702154368E-004	2,000000000000000E+000
2,1478263E-001	-7,641004916607713E-004	2,000000000000000E+000
2,1077465E-001	-7,720810187956989E-004	2,000000000000000E+000
2,0672254E-001	-8,245865279958610E-004	2,000000000000000E+000
2,0277947E-001	-8,524582723213030E-004	2,000000000000000E+000
1,9877701E-001	-8,819540585810245E-004	2,000000000000000E+000
1,9479153E-001	-8,636411087671290E-004	2,000000000000000E+000
1,9075087E-001	-8,582825598971852E-004	2,000000000000000E+000
1,8678021E-001	-8,582383374973503E-004	2,000000000000000E+000
1,8276183E-001	-8,925150648337874E-004	2,000000000000000E+000
1,7872755E-001	-9,335769305178279E-004	2,000000000000000E+000
1,7476964E-001	-9,499563065055020E-004	2,000000000000000E+000
1,7073959E-001	-1,028124481297047E-003	2,000000000000000E+000
1,6675940E-001	-9,996367928545545E-004	2,000000000000000E+000
1,6272724E-001	-9,742880555744758E-004	2,000000000000000E+000
1,5875871E-001	-1,012081178184117E-003	2,000000000000000E+000
1,5473926E-001	-1,018954814101029E-003	2,000000000000000E+000
1,5079303E-001	-1,074966510586777E-003	2,000000000000000E+000
1,4677994E-001	-1,064320077249350E-003	2,000000000000000E+000
1,4278810E-001	-1,137851820125230E-003	2,000000000000000E+000
1,3878562E-001	-1,091171990925361E-003	2,000000000000000E+000
1,3480967E-001	-1,125961581271477E-003	2,000000000000000E+000
1,3072871E-001	-1,106154275981275E-003	2,000000000000000E+000
1,2674533E-001	-1,190615434906145E-003	2,000000000000000E+000
1,2273014E-001	-1,154466990387680E-003	2,000000000000000E+000
1,1874253E-001	-1,183075628272554E-003	2,000000000000000E+000
1,1474749E-001	-1,175049548986923E-003	2,000000000000000E+000
1,1076410E-001	-1,214071755296369E-003	2,000000000000000E+000
1,0679454E-001	-1,211215624237040E-003	2,000000000000000E+000
1,0278463E-001	-1,241227266897721E-003	2,000000000000000E+000
9,8778978E-002	-1,240708424322497E-003	2,000000000000000E+000
9,4762728E-002	-1,363225105417653E-003	2,000000000000000E+000
9,0782538E-002	-1,309509417233635E-003	2,000000000000000E+000
8,6768404E-002	-1,311696568845062E-003	2,000000000000000E+000
8,2792453E-002	-1,364094564910036E-003	2,000000000000000E+000
7,8768767E-002	-1,386027108971443E-003	2,000000000000000E+000
7,4817225E-002	-1,443704071600979E-003	2,000000000000000E+000
7,0782930E-002	-1,417164647338924E-003	2,000000000000000E+000
6,6782586E-002	-1,429570875235125E-003	2,000000000000000E+000
6,3230991E-002	-1,373989807689213E-003	2,000000000000000E+000
6,6805929E-002	-1,032357225060173E-003	3,000000000000000E+000
7,0797779E-002	-7,864337973876043E-004	3,000000000000000E+000
7,4818283E-002	-5,887377629918466E-004	3,000000000000000E+000
7,8816503E-002	-4,662860537202342E-004	3,000000000000000E+000
8,2788207E-002	-3,369606797436787E-004	3,000000000000000E+000
8,6792804E-002	-2,893847384728835E-004	3,000000000000000E+000
9,0820722E-002	-1,601861256403940E-004	3,000000000000000E+000
9,4769098E-002	-1,306460949729595E-004	3,000000000000000E+000
9,8841578E-002	1,617279347848824E-005	3,000000000000000E+000
1,0278358E-001	6,220125419584147E-005	3,000000000000000E+000
1,0679241E-001	1,480654076304851E-004	3,000000000000000E+000
1,1078532E-001	1,559677070217293E-004	3,000000000000000E+000
1,1478037E-001	1,999918540268137E-004	3,000000000000000E+000
1,1874887E-001	2,884822656091680E-004	3,000000000000000E+000
1,2271316E-001	3,173178423889173E-004	3,000000000000000E+000
1,2680262E-001	3,331401343597525E-004	3,000000000000000E+000
1,3077644E-001	4,005646219495795E-004	3,000000000000000E+000
1,3480967E-001	4,344109420344449E-004	3,000000000000000E+000
1,3879728E-001	4,657077181743942E-004	3,000000000000000E+000
1,4277007E-001	5,537206484236609E-004	3,000000000000000E+000
1,4680646E-001	5,793640772127318E-004	3,000000000000000E+000
1,5078771E-001	5,205993642515843E-004	3,000000000000000E+000
1,5478913E-001	5,825679838919861E-004	3,000000000000000E+000
1,5878630E-001	6,108347024059574E-004	3,000000000000000E+000
1,6273996E-001	7,028090938176849E-004	3,000000000000000E+000
1,6681032E-001	6,937896642672005E-004	3,000000000000000E+000
1,7077036E-001	7,125447360328517E-004	3,000000000000000E+000
1,7473039E-001	7,571996798189998E-004	3,000000000000000E+000
1,7872542E-001	7,766238103764991E-004	3,000000000000000E+000
1,8278307E-001	7,675454676645873E-004	3,000000000000000E+000
1,8678130E-001	8,285001681374339E-004	3,000000000000000E+000
1,9079542E-001	8,237605447565938E-004	3,000000000000000E+000
1,9475758E-001	8,804826298661229E-004	3,000000000000000E+000
1,9877914E-001	8,881078549704911E-004	3,000000000000000E+000
2,0281236E-001	9,239850193462516E-004	3,000000000000000E+000
2,0675649E-001	1,021851420512542E-003	3,000000000000000E+000
2,1074428E-001	9,918049964881956E-004	3,000000000000000E+000
2,1474233E-001	1,002533321870603E-003	3,000000000000000E+000
2,1880102E-001	1,055718485459958E-003	3,000000000000000E+000
2,2282897E-001	1,041254988969613E-003	3,000000000000000E+000
2,2677730E-001	1,076819753136622E-003	3,000000000000000E+000
2,3075114E-001	1,093364174367804E-003	3,000000000000000E+000
2,3480454E-001	1,111718267700923E-003	3,000000000000000E+000
2,3878258E-001	1,217395788848484E-003	3,000000000000000E+000
2,4278188E-001	1,186443866867263E-003	3,000000000000000E+000
2,4678859E-001	1,179080889176860E-003	3,000000000000000E+000
2,5079849E-001	1,238768254922806E-003	3,000000000000000E+000
2,5480625E-001	1,281866913965738E-003	3,000000000000000E+000
2,5879809E-001	1,324051733726498E-003	3,000000000000000E+000
2,6277617E-001	1,380411256091230E-003	3,000000000000000E+000
2,6678818E-001	1,423418468288279E-003	3,000000000000000E+000
2,7077049E-001	1,410030937087730E-003	3,000000000000000E+000
2,7479735E-001	1,477057418760024E-003	3,000000000000000E+000
2,7878818E-001	1,525611924084510E-003	3,000000000000000E+000
2,8275457E-001	1,561769200268126E-003	3,000000000000000E+000
2,8674433E-001	1,595161568921546E-003	3,000000000000000E+000
2,9080194E-001	1,642601875272688E-003	3,000000000000000E+000
2,9480124E-001	1,679693517627576E-003	3,000000000000000E+000
2,9877505E-001	1,722644762914434E-003	3,000000000000000E+000
3,0271599E-001	1,743321549602789E-003	3,000000000000000E+000
3,0678955E-001	1,767724098564717E-003	3,000000000000000E+000
3,1073046E-001	1,767715345236131E-003	3,000000000000000E+000
3,1479344E-001	1,850602401932345E-003	3,000000000000000E+000
3,1875026E-001	1,892707723561246E-003	3,000000000000000E+000
3,2277924E-001	1,944917109759210E-003	3,000000000000000E+000
3,2673183E-001	1,983927364798788E-003	3,000000000000000E+000
3,3078840E-001	2,050968847605097E-003	3,000000000000000E+000
3,3479619E-001	2,076491200703596E-003	3,000000000000000E+000
3,3879021E-001	2,143208478864157E-003	3,000000000000000E+000
3,4277463E-001	2,143131792157266E-003	3,000000000000000E+000
3,4674948E-001	2,210550523159327E-003	3,000000000000000E+000
3,5078803E-001	2,309236216037629E-003	3,000000000000000E+000
3,5475653E-001	2,354510077566367E-003	3,000000000000000E+000
3,5878336E-001	2,383204374281276E-003	3,000000000000000E+000
3,6311370E-001	3,291550525722820E-003	3,000000000000000E+000
3,6069077E-001	7,571771065057759E-004	3,000000000000000E+000
3,5669994E-001	3,384529473906793E-004	3,000000000000000E+000
3,5270387E-001	7,427383965871617E-005	3,000000000000000E+000
3,4870461E-001	-1,226609331486841E-004	3,000000000000000E+000
3,4473604E-001	-3,001439048670425E-004	3,000000000000000E+000
3,4069645E-001	-4,248827936290025E-004	3,000000000000000E+000
3,3671945E-001	-5,599671749897169E-004	3,000000000000000E+000
3,3270425E-001	-6,309864247332044E-004	3,000000000000000E+000
3,2869968E-001	-7,508017883487289E-004	3,000000000000000E+000
3,2468870E-001	-8,210399325131873E-004	3,000000000000000E+000
3,2071701E-001	-9,055451944867042E-004	3,000000000000000E+000
3,1669438E-001	-9,579208231621644E-004	3,000000000000000E+000
3,1269509E-001	-1,037523585923565E-003	3,000000000000000E+000
3,0872020E-001	-1,076121326386108E-003	3,000000000000000E+000
3,0471987E-001	-1,145945606333916E-003	3,000000000000000E+000
3,0070683E-001	-1,182352172084693E-003	3,000000000000000E+000
2,9670435E-001	-1,243356041716955E-003	3,000000000000000E+000
2,9270715E-001	-1,266974761232702E-003	3,000000000000000E+000
2,8874290E-001	-1,296784810148416E-003	3,000000000000000E+000
2,8468314E-001	-1,338110162409803E-003	3,000000000000000E+000
2,8069338E-001	-1,395088544086320E-003	3,000000000000000E+000
2,7671638E-001	-1,401694905830982E-003	3,000000000000000E+000
2,7270120E-001	-1,459002886096846E-003	3,000000000000000E+000
2,6872844E-001	-1,462290812385077E-003	3,000000000000000E+000
2,6466548E-001	-1,510221532279737E-003	3,000000000000000E+000
2,6069972E-001	-1,520108727117681E-003	3,000000000000000E+000
2,5672629E-001	-1,550063921496512E-003	3,000000000000000E+000
2,5267187E-001	-1,556793750852291E-003	3,000000000000000E+000
2,4874368E-001	-1,609051655341993E-003	3,000000000000000E+000
2,4472953E-001	-1,600531329771639E-003	3,000000000000000E+000
2,4068782E-001	-1,642244898431715E-003	3,000000000000000E+000
2,3673628E-001	-1,651687479116610E-003	3,000000000000000E+000
2,3278366E-001	-1,687866261043511E-003	3,000000000000000E+000
2,2867934E-001	-1,686339526376862E-003	3,000000000000000E+000
2,2466843E-001	-1,699946903196779E-003	3,000000000000000E+000
2,2071156E-001	-1,720810585269378E-003	3,000000000000000E+000
2,1676105E-001	-1,749327833143372E-003	3,000000000000000E+000
2,1276389E-001	-1,750874100522461E-003	3,000000000000000E+000
2,0873278E-001	-1,791600598220676E-003	3,000000000000000E+000
2,0473033E-001	-1,790041296906707E-003	3,000000000000000E+000
2,0070662E-001	-1,816445789935874E-003	3,000000000000000E+000
1,9667660E-001	-1,819376154378046E-003	3,000000000000000E+000
1,9272718E-001	-1,848738809510704E-003	3,000000000000000E+000
1,8873532E-001	-1,842186073998975E-003	3,000000000000000E+000
1,8472755E-001	-1,870406270663129E-003	3,000000000000000E+000
1,8070069E-001	-1,873821543186854E-003	3,000000000000000E+000
1,7672049E-001	-1,910333381804066E-003	3,000000000000000E+000
1,7275409E-001	-1,907977121138372E-003	3,000000000000000E+000
1,6871661E-001	-1,936953508885815E-003	3,000000000000000E+000
1,6470566E-001	-1,938737425478867E-003	3,000000000000000E+000
1,6071911E-001	-1,951038854140615E-003	3,000000000000000E+000
1,5672831E-001	-1,967787017983252E-003	3,000000000000000E+000
1,5275978E-001	-1,996512929003477E-003	3,000000000000000E+000
1,4871170E-001	-1,984713782601621E-003	3,000000000000000E+000
1,4474636E-001	-2,027824545856899E-003	3,000000000000000E+000
1,4074494E-001	-2,023124179416941E-003	3,000000000000000E+000
1,3675523E-001	-2,061571044679210E-003	3,000000000000000E+000
1,3275911E-001	-2,055309943022653E-003	3,000000000000000E+000
1,2873119E-001	-2,107642147435661E-003	3,000000000000000E+000
1,2475206E-001	-2,089294329279155E-003	3,000000000000000E+000
1,2073474E-001	-2,120846623761762E-003	3,000000000000000E+000
1,1669622E-001	-2,124270432600663E-003	3,000000000000000E+000
1,1273617E-001	-2,146660814577007E-003	3,000000000000000E+000
1,0873158E-001	-2,155806428668774E-003	3,000000000000000E+000
1,0472488E-001	-2,186200090498594E-003	3,000000000000000E+000
1,0074574E-001	-2,179273378580406E-003	3,000000000000000E+000
9,6745394E-002	-2,192215103638807E-003	3,000000000000000E+000
9,2759907E-002	-2,221216523375244E-003	3,000000000000000E+000
8,8753186E-002	-2,261394595498803E-003	3,000000000000000E+000
8,4683903E-002	-2,253197161028061E-003	3,000000000000000E+000
8,0749325E-002	-2,290958817293704E-003	3,000000000000000E+000
7,6733060E-002	-2,276796151245771E-003	3,000000000000000E+000
7,2669066E-002	-2,316915147444150E-003	3,000000000000000E+000
6,8737678E-002	-2,314880896409265E-003	3,000000000000000E+000
6,4715058E-002	-2,359742268809997E-003	3,000000000000000E+000
6,4808406E-002	-5,054849901726891E-004	4,000000000000000E+000
6,8811931E-002	-1,508674926113862E-004	4,000000000000000E+000
7,2831370E-002	8,914729818132916E-005	4,000000000000000E+000
7,6843388E-002	2,293414960377049E-004	4,000000000000000E+000
8,0853283E-002	3,804556430016719E-004	4,000000000000000E+000
8,4802710E-002	4,785743196946551E-004	4,000000000000000E+000
8,8864572E-002	5,874222270331654E-004	4,000000000000000E+000
9,2823558E-002	6,587771895957063E-004	4,000000000000000E+000
9,6834503E-002	7,377632791758515E-004	4,000000000000000E+000
1,0083591E-001	8,107063544971287E-004	4,000000000000000E+000
1,0484368E-001	8,934841497210541E-004	4,000000000000000E+000
1,0882917E-001	9,456044251607947E-004	4,000000000000000E+000
1,1279876E-001	1,019899482478784E-003	4,000000000000000E+000
1,1684684E-001	1,054796011885630E-003	4,000000000000000E+000
1,2083022E-001	1,129188701236641E-003	4,000000000000000E+000
1,2479343E-001	1,167938146628095E-003	4,000000000000000E+000
1,2880546E-001	1,239106881257617E-003	4,000000000000000E+000
1,3282807E-001	1,254158079164978E-003	4,000000000000000E+000
1,3683264E-001	1,315302550480096E-003	4,000000000000000E+000
1,4079694E-001	1,343449085618849E-003	4,000000000000000E+000
1,4482169E-001	1,395171436376616E-003	4,000000000000000E+000
1,4880294E-001	1,425180960520972E-003	4,000000000000000E+000
1,5283404E-001	1,475862330456340E-003	4,000000000000000E+000
1,5678558E-001	1,487831389466822E-003	4,000000000000000E+000
1,6081353E-001	1,523981179532174E-003	4,000000000000000E+000
1,6480961E-001	1,559903913908381E-003	4,000000000000000E+000
1,6885135E-001	1,608329919286505E-003	4,000000000000000E+000
1,7280713E-001	1,623151463044687E-003	4,000000000000000E+000
1,7680535E-001	1,671871575429886E-003	4,000000000000000E+000
1,8083753E-001	1,689220028950968E-003	4,000000000000000E+000
1,8481028E-001	1,735770762024913E-003	4,000000000000000E+000
1,8880744E-001	1,744379302113824E-003	4,000000000000000E+000
1,9283539E-001	1,783662816807112E-003	4,000000000000000E+000
1,9682087E-001	1,800030729673047E-003	4,000000000000000E+000
2,0079681E-001	1,854125092871042E-003	4,000000000000000E+000
2,0481306E-001	1,856152902527598E-003	4,000000000000000E+000
2,0883675E-001	1,897060371346834E-003	4,000000000000000E+000
2,1281059E-001	1,917832609184125E-003	4,000000000000000E+000
2,1682790E-001	1,949290931170924E-003	4,000000000000000E+000
2,2082826E-001	1,970464992121335E-003	4,000000000000000E+000
2,2483708E-001	1,998212720974592E-003	4,000000000000000E+000
2,2882575E-001	2,024228993967113E-003	4,000000000000000E+000
2,3281337E-001	2,069103767334370E-003	4,000000000000000E+000
2,3681371E-001	2,079120886466834E-003	4,000000000000000E+000
2,4082893E-001	2,123446958581490E-003	4,000000000000000E+000
2,4484092E-001	2,139627425263083E-003	4,000000000000000E+000
2,4885082E-001	2,186164659010323E-003	4,000000000000000E+000
2,5277901E-001	2,196595612245063E-003	4,000000000000000E+000
2,5682181E-001	2,235296814803771E-003	4,000000000000000E+000
2,6081586E-001	2,258758965752625E-003	4,000000000000000E+000
2,6483735E-001	2,311068781839110E-003	4,000000000000000E+000
2,6880267E-001	2,329709553763409E-003	4,000000000000000E+000
2,7277544E-001	2,379887070371001E-003	4,000000000000000E+000
2,7681503E-001	2,403706378202142E-003	4,000000000000000E+000
2,8080159E-001	2,443394425090107E-003	4,000000000000000E+000
2,8484121E-001	2,461489494803742E-003	4,000000000000000E+000
2,8884366E-001	2,496857665257128E-003	4,000000000000000E+000
2,9278672E-001	2,525087707369865E-003	4,000000000000000E+000
2,9679343E-001	2,587742389921368E-003	4,000000000000000E+000
3,0085319E-001	2,605225402846748E-003	4,000000000000000E+000
3,0478880E-001	2,665695284290625E-003	4,000000000000000E+000
3,0877960E-001	2,687846329569808E-003	4,000000000000000E+000
3,1278738E-001	2,743285489419489E-003	4,000000000000000E+000
3,1679302E-001	2,767484723504084E-003	4,000000000000000E+000
3,2080826E-001	2,811402859892786E-003	4,000000000000000E+000
3,2481709E-001	2,851601067555345E-003	4,000000000000000E+000
3,2880473E-001	2,912394618356823E-003	4,000000000000000E+000
3,3280715E-001	2,936700344434931E-003	4,000000000000000E+000
3,3683616E-001	2,994086270552601E-003	4,000000000000000E+000
3,4081739E-001	3,024138134033239E-003	4,000000000000000E+000
3,4480292E-001	3,088096062937334E-003	4,000000000000000E+000
3,4880853E-001	3,119017480963139E-003	4,000000000000000E+000
3,5279933E-001	3,160917822646693E-003	4,000000000000000E+000
3,5680816E-001	3,215949412185212E-003	4,000000000000000E+000
3,6076507E-001	3,284861042629931E-003	4,000000000000000E+000
3,6269784E-001	1,241049637125497E-003	4,000000000000000E+000
3,5867095E-001	5,415984173008893E-004	4,000000000000000E+000
3,5467699E-001	2,147232823719808E-004	4,000000000000000E+000
3,5071161E-001	-3,537405881282041E-005	4,000000000000000E+000
3,4670812E-001	-1,926137577070398E-004	4,000000000000000E+000
3,4274599E-001	-3,595333847880725E-004	4,000000000000000E+000
3,3870530E-001	-4,677013673278444E-004	4,000000000000000E+000
3,3470178E-001	-5,942822156578560E-004	4,000000000000000E+000
3,3067703E-001	-6,759661025878610E-004	4,000000000000000E+000
3,2668093E-001	-7,674800417589740E-004	4,000000000000000E+000
3,2270288E-001	-8,429523644466596E-004	4,000000000000000E+000
3,1867173E-001	-9,360267184901089E-004	4,000000000000000E+000
3,1468093E-001	-9,872902900732942E-004	4,000000000000000E+000
3,1070185E-001	-1,063221849310342E-003	4,000000000000000E+000
3,0673438E-001	-1,106188669331869E-003	4,000000000000000E+000
3,0269688E-001	-1,178211155396035E-003	4,000000000000000E+000
2,9870716E-001	-1,199200826603273E-003	4,000000000000000E+000
2,9471105E-001	-1,264111291001666E-003	4,000000000000000E+000
2,9074255E-001	-1,290235699680464E-003	4,000000000000000E+000
2,8677079E-001	-1,346208464383380E-003	4,000000000000000E+000
2,8272593E-001	-1,360862658152147E-003	4,000000000000000E+000
2,7873302E-001	-1,414108830363994E-003	4,000000000000000E+000
2,7471036E-001	-1,436451145073753E-003	4,000000000000000E+000
2,7072912E-001	-1,475971876330995E-003	4,000000000000000E+000
2,6670969E-001	-1,492361004137722E-003	4,000000000000000E+000
2,6275069E-001	-1,513219698271890E-003	4,000000000000000E+000
2,5869733E-001	-1,544538248843447E-003	4,000000000000000E+000
2,5471398E-001	-1,585493393374944E-003	4,000000000000000E+000
2,5071681E-001	-1,589998433633742E-003	4,000000000000000E+000
2,4673767E-001	-1,630831195345520E-003	4,000000000000000E+000
2,4274901E-001	-1,637083774430375E-003	4,000000000000000E+000
2,3869136E-001	-1,676704260818141E-003	4,000000000000000E+000
2,3476635E-001	-1,675129480039072E-003	4,000000000000000E+000
2,3069917E-001	-1,720823412243701E-003	4,000000000000000E+000
2,2674656E-001	-1,715938135694831E-003	4,000000000000000E+000
2,2271968E-001	-1,749215887415360E-003	4,000000000000000E+000
2,1865144E-001	-1,751621277233223E-003	4,000000000000000E+000
2,1468610E-001	-1,775745247195350E-003	4,000000000000000E+000
2,1071120E-001	-1,787274775643385E-003	4,000000000000000E+000
2,0674270E-001	-1,820803400295078E-003	4,000000000000000E+000
2,0270309E-001	-1,811684061572630E-003	4,000000000000000E+000
1,9874308E-001	-1,829051938666785E-003	4,000000000000000E+000
1,9469075E-001	-1,841628514941678E-003	4,000000000000000E+000
1,9072753E-001	-1,877821051931715E-003	4,000000000000000E+000
1,8673991E-001	-1,874657511103172E-003	4,000000000000000E+000
1,8270138E-001	-1,909573132622799E-003	4,000000000000000E+000
1,7873606E-001	-1,910059779927691E-003	4,000000000000000E+000
1,7470706E-001	-1,939675845076434E-003	4,000000000000000E+000
1,7070778E-001	-1,942546756052051E-003	4,000000000000000E+000
1,6671167E-001	-1,965412867085196E-003	4,000000000000000E+000
1,6271663E-001	-1,970217774214690E-003	4,000000000000000E+000
1,5871947E-001	-2,000354988989858E-003	4,000000000000000E+000
1,5473714E-001	-2,002485801414068E-003	4,000000000000000E+000
1,5068588E-001	-2,031513878372838E-003	4,000000000000000E+000
1,4673646E-001	-2,036661569878487E-003	4,000000000000000E+000
1,4275202E-001	-2,060868484679498E-003	4,000000000000000E+000
1,3871561E-001	-2,060129102944674E-003	4,000000000000000E+000
1,3473010E-001	-2,078226788769283E-003	4,000000000000000E+000
1,3070537E-001	-2,102692541989713E-003	4,000000000000000E+000
1,2668805E-001	-2,126131597227271E-003	4,000000000000000E+000
1,2268771E-001	-2,130306267645203E-003	4,000000000000000E+000
1,1876374E-001	-2,161680519175549E-003	4,000000000000000E+000
1,1474112E-001	-2,160471432607329E-003	4,000000000000000E+000
1,1070576E-001	-2,189571730721375E-003	4,000000000000000E+000
1,0672770E-001	-2,189848403860301E-003	4,000000000000000E+000
1,0273690E-001	-2,209876476963808E-003	4,000000000000000E+000
9,8694116E-002	-2,219171218813345E-003	4,000000000000000E+000
9,4749995E-002	-2,260367562552403E-003	4,000000000000000E+000
9,0740107E-002	-2,261982933743162E-003	4,000000000000000E+000
8,6721726E-002	-2,283988115744220E-003	4,000000000000000E+000
8,2783967E-002	-2,296675222438619E-003	4,000000000000000E+000
7,8741193E-002	-2,323351353644049E-003	4,000000000000000E+000
7,4725993E-002	-2,318907341018698E-003	4,000000000000000E+000
7,0712917E-002	-2,345866704504092E-003	4,000000000000000E+000
6,6744395E-002	-2,358677027384855E-003	4,000000000000000E+000
6,3288271E-002	-2,361501334235072E-003	4,000000000000000E+000
6,6858962E-002	-3,284695331886821E-004	4,000000000000000E+000
7,0851885E-002	-7,439063408246153E-005	4,000000000000000E+000
7,4817225E-002	1,154842455274842E-004	4,000000000000000E+000
7,8826055E-002	2,751685882031998E-004	4,000000000000000E+000
8,2817905E-002	3,862970168281906E-004	4,000000000000000E+000
8,6841598E-002	5,141965171383657E-004	4,000000000000000E+000
9,0848304E-002	5,860062766361003E-004	4,000000000000000E+000
9,4843343E-002	6,924797040415726E-004	4,000000000000000E+000
9,8818228E-002	7,534172653794050E-004	4,000000000000000E+000
1,0284086E-001	8,220168845717302E-004	4,000000000000000E+000
1,0683484E-001	8,880002426815723E-004	4,000000000000000E+000
1,1082034E-001	9,786313285413050E-004	4,000000000000000E+000
1,1486099E-001	1,006670411260093E-003	4,000000000000000E+000
1,1883800E-001	1,085665973126496E-003	4,000000000000000E+000
1,2277149E-001	1,135802005861748E-003	4,000000000000000E+000
1,2680049E-001	1,182923443627295E-003	4,000000000000000E+000
1,3080615E-001	1,215693858992176E-003	4,000000000000000E+000
1,3447979E-001	1,238029294957716E-003	4,000000000000000E+000
1,3475987E-001	1,444446388632059E-003	4,000000000000000E+000