File: fig_si_ecsa/CeO2/200.txt
EC-Lab ASCII FILE
Nb header lines : 59

Cyclic Voltammetry

Run on channel : 1 (SN 10336)
User :
CE vs. WE compliance from -10 V to 10 V
Electrode connection : standard
Potential control : Ewe
Ewe ctrl range : min = -2,50 V, max = 2,50 V
Safety Limits :
	Do not start on E overload
Acquisition started on : 10/13/2024 13:58:28.596
Technique started on : 10/13/2024 14:05:53.947
Loaded Setting File :  C:\EC-lab data\Neethu\Methods\CV_ECSA.mps
Saved on :
	File : CV_ECSA_05_CV_C01.mpr
	Directory : C:\EC-lab data\Neethu\2024_10_13_Ni90Fe10_CeO2\CV_ECSA\
	Host : 10.54.33.65
Device : VMP3 (SN 0498)
Address : USB
EC-Lab for windows v11.52 (software)
Internet server v11.52 (firmware)
Command interpretor v11.50 (firmware)
Electrode material :
Initial state :
Electrolyte :
Comments :
Electrode surface area : 0,001 cm²
Characteristic mass : 0,001 g
Volume (V) : 0,001 cm³
Thickness (t) : 0,000 cm
Diameter (d) : 0,000 cm
Cell constant (k=t/A) : 0,000 cm-1
Cycle Definition : Charge/Discharge alternance
Ei (V)              0,064
vs.                 Ref
dE/dt               200,000
dE/dt unit          mV/s
E1 (V)              0,364
vs.                 Ref
Step percent        50
N                   10
E range min (V)     -2,500
E range max (V)     2,500
I Range             Auto
I Range min         Unset
I Range max         Unset
I Range init        Unset
Bandwidth           5
E2 (V)              0,064
vs.                 Ref
nc cycles           3
Reverse Scan        1
Ef (V)              0,070
vs.                 Eoc

Ewe/V	<I>/mA	cycle number
6,8730272E-002	2,118929848074913E-002	1,000000000000000E+000
7,2620369E-002	2,639732287336341E-003	1,000000000000000E+000
7,6681040E-002	4,058646770896637E-003	1,000000000000000E+000
8,0677040E-002	5,152659981583629E-003	1,000000000000000E+000
8,4732935E-002	5,533956831393239E-003	1,000000000000000E+000
8,8701174E-002	6,222002827681469E-003	1,000000000000000E+000
9,2708029E-002	6,344321734518016E-003	1,000000000000000E+000
9,6755669E-002	6,595710230199475E-003	1,000000000000000E+000
1,0069266E-001	6,918252729933155E-003	1,000000000000000E+000
1,0468476E-001	7,370313487874910E-003	1,000000000000000E+000
1,0871028E-001	7,346590164078487E-003	1,000000000000000E+000
1,1270671E-001	7,904083612795001E-003	1,000000000000000E+000
1,1667928E-001	7,768271690441558E-003	1,000000000000000E+000
1,2075341E-001	8,360788287146467E-003	1,000000000000000E+000
1,2470342E-001	8,166172008218009E-003	1,000000000000000E+000
1,2874240E-001	8,791731480001064E-003	1,000000000000000E+000
1,3274273E-001	8,577030345722145E-003	1,000000000000000E+000
1,3668926E-001	8,897923530722357E-003	1,000000000000000E+000
1,4072694E-001	8,936434206671881E-003	1,000000000000000E+000
1,4472900E-001	9,316204950581886E-003	1,000000000000000E+000
1,4870331E-001	9,217225084285005E-003	1,000000000000000E+000
1,5274099E-001	9,501097514657900E-003	1,000000000000000E+000
1,5667278E-001	9,360966642485785E-003	1,000000000000000E+000
1,6070913E-001	9,560401519675851E-003	1,000000000000000E+000
1,6468431E-001	9,664264886768359E-003	1,000000000000000E+000
1,6869247E-001	1,009237049848627E-002	1,000000000000000E+000
1,7271276E-001	9,949989304335438E-003	1,000000000000000E+000
1,7667970E-001	1,034501036271901E-002	1,000000000000000E+000
1,8070954E-001	1,015019784856784E-002	1,000000000000000E+000
1,8467866E-001	1,055576822430093E-002	1,000000000000000E+000
1,8872805E-001	1,043467847491475E-002	1,000000000000000E+000
1,9268759E-001	1,079465463987041E-002	1,000000000000000E+000
1,9672179E-001	1,064581971149892E-002	1,000000000000000E+000
2,0068179E-001	1,104529004078359E-002	1,000000000000000E+000
2,0471339E-001	1,091197432883334E-002	1,000000000000000E+000
2,0868811E-001	1,131960603395954E-002	1,000000000000000E+000
2,1268108E-001	1,120279234320071E-002	1,000000000000000E+000
2,1671614E-001	1,146561194168912E-002	1,000000000000000E+000
2,2069176E-001	1,141877386990850E-002	1,000000000000000E+000
2,2468385E-001	1,153250470914907E-002	1,000000000000000E+000
2,2870719E-001	1,163805393943310E-002	1,000000000000000E+000
2,3269193E-001	1,210372317407088E-002	1,000000000000000E+000
2,3671484E-001	1,188988324049043E-002	1,000000000000000E+000
2,4071997E-001	1,238119320193866E-002	1,000000000000000E+000
2,4469730E-001	1,229660315402727E-002	1,000000000000000E+000
2,4870372E-001	1,265966890688023E-002	1,000000000000000E+000
2,5269017E-001	1,253948325194701E-002	1,000000000000000E+000
2,5671872E-001	1,278184278916425E-002	1,000000000000000E+000
2,6074380E-001	1,276230156723945E-002	1,000000000000000E+000
2,6465780E-001	1,318066942638490E-002	1,000000000000000E+000
2,6868984E-001	1,319382302922767E-002	1,000000000000000E+000
2,7269235E-001	1,352646459021012E-002	1,000000000000000E+000
2,7670744E-001	1,362764377914905E-002	1,000000000000000E+000
2,8067613E-001	1,405562746731449E-002	1,000000000000000E+000
2,8471118E-001	1,392042995890239E-002	1,000000000000000E+000
2,8873712E-001	1,410713189480622E-002	1,000000000000000E+000
2,9266280E-001	1,430827333040890E-002	1,000000000000000E+000
2,9666924E-001	1,476992763838840E-002	1,000000000000000E+000
3,0071518E-001	1,473013668030701E-002	1,000000000000000E+000
3,0471289E-001	1,517740755777847E-002	1,000000000000000E+000
3,0866593E-001	1,521391462764848E-002	1,000000000000000E+000
3,1270397E-001	1,572023843571363E-002	1,000000000000000E+000
3,1667611E-001	1,579261158622108E-002	1,000000000000000E+000
3,2066318E-001	1,606362170122849E-002	1,000000000000000E+000
3,2469338E-001	1,610928283812624E-002	1,000000000000000E+000
3,2868630E-001	1,654707119371820E-002	1,000000000000000E+000
3,3265507E-001	1,655624106016429E-002	1,000000000000000E+000
3,3668363E-001	1,710178566471487E-002	1,000000000000000E+000
3,4069481E-001	1,714779287367890E-002	1,000000000000000E+000
3,4468892E-001	1,765879837662596E-002	1,000000000000000E+000
3,4868470E-001	1,761019681029918E-002	1,000000000000000E+000
3,5266763E-001	1,794819598027336E-002	1,000000000000000E+000
3,5669869E-001	1,812886389424151E-002	1,000000000000000E+000
3,6068946E-001	1,854430144189600E-002	1,000000000000000E+000
3,6320928E-001	1,847838237881660E-002	1,000000000000000E+000
3,5975173E-001	-2,335107017613974E-004	1,000000000000000E+000
3,5569787E-001	-2,298683077163362E-003	1,000000000000000E+000
3,5172075E-001	-3,293643844580918E-003	1,000000000000000E+000
3,4771833E-001	-4,450586998087668E-003	1,000000000000000E+000
3,4372133E-001	-4,871249033345987E-003	1,000000000000000E+000
3,3970022E-001	-5,524813030206147E-003	1,000000000000000E+000
3,3568656E-001	-6,016988504953857E-003	1,000000000000000E+000
3,3166838E-001	-6,708045713663624E-003	1,000000000000000E+000
3,2775024E-001	-6,794452231944262E-003	1,000000000000000E+000
3,2371709E-001	-7,326108637204509E-003	1,000000000000000E+000
3,1971341E-001	-7,469371448282995E-003	1,000000000000000E+000
3,1569982E-001	-7,935513358144991E-003	1,000000000000000E+000
3,1170318E-001	-7,929644771613065E-003	1,000000000000000E+000
3,0771166E-001	-8,206652078280779E-003	1,000000000000000E+000
3,0378029E-001	-8,399467149584713E-003	1,000000000000000E+000
2,9974914E-001	-8,784678490056486E-003	1,000000000000000E+000
2,9573753E-001	-8,697021051623524E-003	1,000000000000000E+000
2,9175189E-001	-9,128809751514796E-003	1,000000000000000E+000
2,8777671E-001	-9,038359919114468E-003	1,000000000000000E+000
2,8371218E-001	-9,442945625365101E-003	1,000000000000000E+000
2,7972269E-001	-9,205868066105294E-003	1,000000000000000E+000
2,7573317E-001	-9,506915839169364E-003	1,000000000000000E+000
2,7172416E-001	-9,533828969159122E-003	1,000000000000000E+000
2,6772639E-001	-9,954259351698858E-003	1,000000000000000E+000
2,6371694E-001	-9,746995727751203E-003	1,000000000000000E+000
2,5971270E-001	-1,014117026550757E-002	1,000000000000000E+000
2,5579002E-001	-1,002335175061570E-002	1,000000000000000E+000
2,5177193E-001	-1,029772552928160E-002	1,000000000000000E+000
2,4773856E-001	-1,010920792908682E-002	1,000000000000000E+000
2,4377207E-001	-1,041665113900138E-002	1,000000000000000E+000
2,3973747E-001	-1,029376062830459E-002	1,000000000000000E+000
2,3574534E-001	-1,056014688534065E-002	1,000000000000000E+000
2,3173632E-001	-1,051675931012139E-002	1,000000000000000E+000
2,2770864E-001	-1,077817585246521E-002	1,000000000000000E+000
2,2373605E-001	-1,070568236685756E-002	1,000000000000000E+000
2,1973094E-001	-1,091276469791903E-002	1,000000000000000E+000
2,1572843E-001	-1,071233116586379E-002	1,000000000000000E+000
2,1173848E-001	-1,092046251109097E-002	1,000000000000000E+000
2,0775680E-001	-1,098485964344449E-002	1,000000000000000E+000
2,0377339E-001	-1,123043828903808E-002	1,000000000000000E+000
1,9970621E-001	-1,105521833663012E-002	1,000000000000000E+000
1,9574754E-001	-1,140437799222124E-002	1,000000000000000E+000
1,9171028E-001	-1,127001292132432E-002	1,000000000000000E+000
1,8774162E-001	-1,160413148268574E-002	1,000000000000000E+000
1,8375428E-001	-1,143207302051118E-002	1,000000000000000E+000
1,7975959E-001	-1,180083196132646E-002	1,000000000000000E+000
1,7570414E-001	-1,150192526223362E-002	1,000000000000000E+000
1,7172895E-001	-1,179139009350774E-002	1,000000000000000E+000
1,6772383E-001	-1,164214324423730E-002	1,000000000000000E+000
1,6368315E-001	-1,196891851015441E-002	1,000000000000000E+000
1,5974700E-001	-1,189479779482506E-002	1,000000000000000E+000
1,5573105E-001	-1,224801632303171E-002	1,000000000000000E+000
1,5171072E-001	-1,200084563623186E-002	1,000000000000000E+000
1,4770173E-001	-1,206909128301380E-002	1,000000000000000E+000
1,4378598E-001	-1,213161538808802E-002	1,000000000000000E+000
1,3973531E-001	-1,240883084111288E-002	1,000000000000000E+000
1,3571848E-001	-1,242196252116456E-002	1,000000000000000E+000
1,3174547E-001	-1,267969578359704E-002	1,000000000000000E+000
1,2773947E-001	-1,242084119572115E-002	1,000000000000000E+000
1,2371917E-001	-1,279468581213389E-002	1,000000000000000E+000
1,1973965E-001	-1,265506843231959E-002	1,000000000000000E+000
1,1573149E-001	-1,295130499536090E-002	1,000000000000000E+000
1,1171465E-001	-1,281019758971523E-002	1,000000000000000E+000
1,0773167E-001	-1,298857940343038E-002	1,000000000000000E+000
1,0373957E-001	-1,302007177996117E-002	1,000000000000000E+000
9,9763095E-002	-1,330393754109203E-002	1,000000000000000E+000
9,5741048E-002	-1,321848672887426E-002	1,000000000000000E+000
9,1726385E-002	-1,346012243547273E-002	1,000000000000000E+000
8,7765969E-002	-1,331764802191829E-002	1,000000000000000E+000
8,3706170E-002	-1,345053648467662E-002	1,000000000000000E+000
7,9740964E-002	-1,347517159477071E-002	1,000000000000000E+000
7,5754948E-002	-1,374623059531255E-002	1,000000000000000E+000
7,1749821E-002	-1,364978376328838E-002	1,000000000000000E+000
6,7761637E-002	-1,392716689869383E-002	1,000000000000000E+000
6,3807629E-002	-1,386559999627932E-002	1,000000000000000E+000
6,3211896E-002	-8,301941445097327E-003	2,000000000000000E+000
6,7034140E-002	2,333034559836487E-003	2,000000000000000E+000
7,1029916E-002	3,572211171044531E-003	2,000000000000000E+000
7,5011581E-002	4,115617753640173E-003	2,000000000000000E+000
7,8992829E-002	4,926693098162169E-003	2,000000000000000E+000
8,3038837E-002	5,001549486025977E-003	2,000000000000000E+000
8,7008469E-002	5,578900328343864E-003	2,000000000000000E+000
9,1011725E-002	5,672400053299484E-003	2,000000000000000E+000
9,5021605E-002	6,219896436090038E-003	2,000000000000000E+000
9,9002860E-002	6,226699018952800E-003	2,000000000000000E+000
1,0298619E-001	6,463620889126519E-003	2,000000000000000E+000
1,0701145E-001	6,713788724443059E-003	2,000000000000000E+000
1,1100390E-001	7,094935950511222E-003	2,000000000000000E+000
1,1504700E-001	7,142630619178497E-003	2,000000000000000E+000
1,1900168E-001	7,530213501566962E-003	2,000000000000000E+000
1,2299165E-001	7,570586265501306E-003	2,000000000000000E+000
1,2698866E-001	7,911817276101865E-003	2,000000000000000E+000
1,3096495E-001	7,857929151214180E-003	2,000000000000000E+000
1,3503006E-001	8,014119227838170E-003	2,000000000000000E+000
1,3899139E-001	8,153963988898685E-003	2,000000000000000E+000
1,4301123E-001	8,627476068242074E-003	2,000000000000000E+000
1,4699621E-001	8,528226023649398E-003	2,000000000000000E+000
1,5099408E-001	8,876003928178222E-003	2,000000000000000E+000
1,5495415E-001	8,780420556555035E-003	2,000000000000000E+000
1,5902798E-001	9,180612638216304E-003	2,000000000000000E+000
1,6298804E-001	9,047058573544417E-003	2,000000000000000E+000
1,6699091E-001	9,324941830013610E-003	2,000000000000000E+000
1,7097546E-001	9,274915484164287E-003	2,000000000000000E+000
1,7497994E-001	9,585731796228791E-003	2,000000000000000E+000
1,7897823E-001	9,524964745334904E-003	2,000000000000000E+000
1,8300763E-001	9,976422280211131E-003	2,000000000000000E+000
1,8695650E-001	9,929579114016290E-003	2,000000000000000E+000
1,9096765E-001	1,021900460720016E-002	2,000000000000000E+000
1,9499330E-001	1,006813613576413E-002	2,000000000000000E+000
1,9899572E-001	1,034776282809305E-002	2,000000000000000E+000
2,0297948E-001	1,037746458551622E-002	2,000000000000000E+000
2,0701012E-001	1,072830208241893E-002	2,000000000000000E+000
2,1099260E-001	1,057941244811367E-002	2,000000000000000E+000
2,1498547E-001	1,095419263947409E-002	2,000000000000000E+000
2,1896425E-001	1,090764053119730E-002	2,000000000000000E+000
2,2300069E-001	1,129637252898139E-002	2,000000000000000E+000
2,2697282E-001	1,112037637010320E-002	2,000000000000000E+000
2,3101594E-001	1,165771327293402E-002	2,000000000000000E+000
2,3498598E-001	1,141666739472980E-002	2,000000000000000E+000
2,3896928E-001	1,173171245191837E-002	2,000000000000000E+000
2,4301034E-001	1,177735804626341E-002	2,000000000000000E+000
2,4701399E-001	1,212509423662006E-002	2,000000000000000E+000
2,5103092E-001	1,213247165303429E-002	2,000000000000000E+000
2,5500390E-001	1,235430011444769E-002	2,000000000000000E+000
2,5899926E-001	1,229630850249799E-002	2,000000000000000E+000
2,6303279E-001	1,261558209649674E-002	2,000000000000000E+000
2,6702526E-001	1,272454775892624E-002	2,000000000000000E+000
2,7102268E-001	1,309625626796020E-002	2,000000000000000E+000
2,7498320E-001	1,300021653040186E-002	2,000000000000000E+000
2,7892751E-001	1,346494690606836E-002	2,000000000000000E+000
2,8297931E-001	1,340194531028677E-002	2,000000000000000E+000
2,8697926E-001	1,393600948374471E-002	2,000000000000000E+000
2,9099327E-001	1,385578918479558E-002	2,000000000000000E+000
2,9499736E-001	1,422506132123252E-002	2,000000000000000E+000
2,9896620E-001	1,426661098341123E-002	2,000000000000000E+000
3,0300927E-001	1,464219472567813E-002	2,000000000000000E+000
3,0696231E-001	1,472915385681484E-002	2,000000000000000E+000
3,1095991E-001	1,532342803991266E-002	2,000000000000000E+000
3,1497240E-001	1,530119549567072E-002	2,000000000000000E+000
3,1898317E-001	1,562237771130728E-002	2,000000000000000E+000
3,2297048E-001	1,572408407925902E-002	2,000000000000000E+000
3,2698169E-001	1,600082284891291E-002	2,000000000000000E+000
3,3097637E-001	1,615708817867423E-002	2,000000000000000E+000
3,3498240E-001	1,676078337583354E-002	2,000000000000000E+000
3,3898014E-001	1,664192255785485E-002	2,000000000000000E+000
3,4295526E-001	1,722685684564407E-002	2,000000000000000E+000
3,4697649E-001	1,720369782395381E-002	2,000000000000000E+000
3,5101545E-001	1,771417264651313E-002	2,000000000000000E+000
3,5496068E-001	1,768022764818773E-002	2,000000000000000E+000
3,5898533E-001	1,803554366911569E-002	2,000000000000000E+000
3,6287504E-001	1,806540108073568E-002	2,000000000000000E+000
3,6070400E-001	7,123229555101914E-004	2,000000000000000E+000
3,5669914E-001	-2,116784162195545E-003	2,000000000000000E+000
3,5266760E-001	-3,349511083520738E-003	2,000000000000000E+000
3,4869218E-001	-4,403757373557183E-003	2,000000000000000E+000
3,4469724E-001	-5,195339165963934E-003	2,000000000000000E+000
3,4068817E-001	-5,622450557933423E-003	2,000000000000000E+000
3,3671272E-001	-6,291370079966524E-003	2,000000000000000E+000
3,3269951E-001	-6,691402577653993E-003	2,000000000000000E+000
3,2873318E-001	-7,128465679789253E-003	2,000000000000000E+000
3,2469428E-001	-7,370626485404187E-003	2,000000000000000E+000
3,2073292E-001	-7,753725365467312E-003	2,000000000000000E+000
3,1667945E-001	-7,901009183510516E-003	2,000000000000000E+000
3,1272477E-001	-8,314882587317510E-003	2,000000000000000E+000
3,0871019E-001	-8,451594060964195E-003	2,000000000000000E+000
3,0474156E-001	-8,671236152870479E-003	2,000000000000000E+000
3,0073556E-001	-8,712698917158604E-003	2,000000000000000E+000
2,9672045E-001	-9,073854343114335E-003	2,000000000000000E+000
2,9273009E-001	-9,153090161486299E-003	2,000000000000000E+000
2,8869936E-001	-9,301765201846807E-003	2,000000000000000E+000
2,8471377E-001	-9,406858468123974E-003	2,000000000000000E+000
2,8072342E-001	-9,686918137958828E-003	2,000000000000000E+000
2,7670309E-001	-9,682989733433220E-003	2,000000000000000E+000
2,7269840E-001	-9,898160424861302E-003	2,000000000000000E+000
2,6875880E-001	-9,880515059525030E-003	2,000000000000000E+000
2,6471984E-001	-1,004985274928251E-002	2,000000000000000E+000
2,6075247E-001	-1,011901064140889E-002	2,000000000000000E+000
2,5677514E-001	-1,017099989820218E-002	2,000000000000000E+000
2,5272834E-001	-1,027196938891642E-002	2,000000000000000E+000
2,4872369E-001	-1,045048208768340E-002	2,000000000000000E+000
2,4471509E-001	-1,047157770567117E-002	2,000000000000000E+000
2,4071737E-001	-1,062832052081253E-002	2,000000000000000E+000
2,3678426E-001	-1,055898211449274E-002	2,000000000000000E+000
2,3276135E-001	-1,079675434514435E-002	2,000000000000000E+000
2,2876188E-001	-1,071676604177890E-002	2,000000000000000E+000
2,2472551E-001	-1,080456856553524E-002	2,000000000000000E+000
2,2072905E-001	-1,093509863874875E-002	2,000000000000000E+000
2,1676952E-001	-1,107625037316626E-002	2,000000000000000E+000
2,1273792E-001	-1,111228679391468E-002	2,000000000000000E+000
2,0873454E-001	-1,122147481659004E-002	2,000000000000000E+000
2,0470165E-001	-1,121039098225907E-002	2,000000000000000E+000
2,0075861E-001	-1,138140727578666E-002	2,000000000000000E+000
1,9673958E-001	-1,134910431805603E-002	2,000000000000000E+000
1,9273229E-001	-1,155379846849514E-002	2,000000000000000E+000
1,8878099E-001	-1,150713458512401E-002	2,000000000000000E+000
1,8469298E-001	-1,161920169132907E-002	2,000000000000000E+000
1,8075165E-001	-1,161025910021800E-002	2,000000000000000E+000
1,7676605E-001	-1,180913799659963E-002	2,000000000000000E+000
1,7278005E-001	-1,171054855860179E-002	2,000000000000000E+000
1,6873541E-001	-1,205046204251465E-002	2,000000000000000E+000
1,6470817E-001	-1,196808634350331E-002	2,000000000000000E+000
1,6072690E-001	-1,197161721277305E-002	2,000000000000000E+000
1,5673916E-001	-1,209806730995214E-002	2,000000000000000E+000
1,5273100E-001	-1,220798604613679E-002	2,000000000000000E+000
1,4877708E-001	-1,227205007010274E-002	2,000000000000000E+000
1,4475115E-001	-1,238882749087432E-002	2,000000000000000E+000
1,4072520E-001	-1,239207579833003E-002	2,000000000000000E+000
1,3670748E-001	-1,254462904200239E-002	2,000000000000000E+000
1,3270627E-001	-1,258522312640378E-002	2,000000000000000E+000
1,2877665E-001	-1,279849819101478E-002	2,000000000000000E+000
1,2477633E-001	-1,270024974292028E-002	2,000000000000000E+000
1,2074907E-001	-1,278381922003807E-002	2,000000000000000E+000
1,1674135E-001	-1,281701989054537E-002	2,000000000000000E+000
1,1274577E-001	-1,304307891950887E-002	2,000000000000000E+000
1,0874586E-001	-1,298212518420104E-002	2,000000000000000E+000
1,0477590E-001	-1,325745469661010E-002	2,000000000000000E+000
1,0075428E-001	-1,327274171109651E-002	2,000000000000000E+000
9,6780419E-002	-1,331995532382281E-002	2,000000000000000E+000
9,2732757E-002	-1,333741345413059E-002	2,000000000000000E+000
8,8751949E-002	-1,350968158344169E-002	2,000000000000000E+000
8,4752902E-002	-1,351120796822543E-002	2,000000000000000E+000
8,0759928E-002	-1,371031841402076E-002	2,000000000000000E+000
7,6740488E-002	-1,373864173762157E-002	2,000000000000000E+000
7,2772697E-002	-1,392243533733888E-002	2,000000000000000E+000
6,8771914E-002	-1,399240336865079E-002	2,000000000000000E+000
6,4739019E-002	-1,402883086831769E-002	2,000000000000000E+000
6,3078232E-002	-1,337774563580751E-002	2,000000000000000E+000
6,5968148E-002	1,729137872383324E-003	3,000000000000000E+000
7,0026621E-002	3,298251955604209E-003	3,000000000000000E+000
7,3998310E-002	4,073515062491820E-003	3,000000000000000E+000
7,8023985E-002	4,552036992604173E-003	3,000000000000000E+000
8,2041353E-002	4,910160849644664E-003	3,000000000000000E+000
8,6059548E-002	5,279446539688003E-003	3,000000000000000E+000
9,0059482E-002	5,675929404669267E-003	3,000000000000000E+000
9,4031595E-002	5,863613799469355E-003	3,000000000000000E+000
9,7992502E-002	6,205730890502817E-003	3,000000000000000E+000
1,0204267E-001	6,400722704553205E-003	3,000000000000000E+000
1,0601187E-001	6,704668002029138E-003	3,000000000000000E+000
1,1004958E-001	6,779711056404486E-003	3,000000000000000E+000
1,1402087E-001	7,147218746546918E-003	3,000000000000000E+000
1,1802661E-001	7,335539600519608E-003	3,000000000000000E+000
1,2199167E-001	7,408167937050458E-003	3,000000000000000E+000
1,2601069E-001	7,576011758710227E-003	3,000000000000000E+000
1,3002475E-001	7,845936184663616E-003	3,000000000000000E+000
1,3401264E-001	7,901139321842027E-003	3,000000000000000E+000
1,3799927E-001	8,282016625700023E-003	3,000000000000000E+000
1,4201583E-001	8,263677622459886E-003	3,000000000000000E+000
1,4600080E-001	8,506925723612932E-003	3,000000000000000E+000
1,5001485E-001	8,584211041006318E-003	3,000000000000000E+000
1,5398404E-001	8,717239197247428E-003	3,000000000000000E+000
1,5799810E-001	8,855816636044123E-003	3,000000000000000E+000
1,6195819E-001	9,084330524511575E-003	3,000000000000000E+000
1,6597596E-001	9,108054177135227E-003	3,000000000000000E+000
1,7001241E-001	9,325204561837774E-003	3,000000000000000E+000
1,7399701E-001	9,451983751442516E-003	3,000000000000000E+000
1,7799567E-001	9,638359993519099E-003	3,000000000000000E+000
1,8197526E-001	9,651038001364853E-003	3,000000000000000E+000
1,8600594E-001	9,805505534408732E-003	3,000000000000000E+000
1,8998466E-001	9,894915605716842E-003	3,000000000000000E+000
1,9397466E-001	1,016079186039230E-002	3,000000000000000E+000
1,9796422E-001	1,018203677765842E-002	3,000000000000000E+000
2,0199525E-001	1,042652294120716E-002	3,000000000000000E+000
2,0600143E-001	1,043759560738892E-002	3,000000000000000E+000
2,1000674E-001	1,063591652659257E-002	3,000000000000000E+000
2,1399008E-001	1,077098590252245E-002	3,000000000000000E+000
2,1799831E-001	1,089145333263214E-002	3,000000000000000E+000
2,2202812E-001	1,097620000987462E-002	3,000000000000000E+000
2,2597577E-001	1,114164206528983E-002	3,000000000000000E+000
2,2998688E-001	1,127936200314056E-002	3,000000000000000E+000
2,3404244E-001	1,154871214938523E-002	3,000000000000000E+000
2,3798718E-001	1,151148889387160E-002	3,000000000000000E+000
2,4198917E-001	1,177236901196962E-002	3,000000000000000E+000
2,4599946E-001	1,184375787124740E-002	3,000000000000000E+000
2,5002265E-001	1,200256418245695E-002	3,000000000000000E+000
2,5402880E-001	1,211497742121499E-002	3,000000000000000E+000
2,5798097E-001	1,239690857065674E-002	3,000000000000000E+000
2,6199007E-001	1,244580628743913E-002	3,000000000000000E+000
2,6600370E-001	1,270791850243852E-002	3,000000000000000E+000
2,7000114E-001	1,287263522254249E-002	3,000000000000000E+000
2,7399567E-001	1,309833992063830E-002	3,000000000000000E+000
2,7797690E-001	1,325655000255214E-002	3,000000000000000E+000
2,8197974E-001	1,350672451703955E-002	3,000000000000000E+000
2,8600669E-001	1,359867427115954E-002	3,000000000000000E+000
2,9001117E-001	1,387951221761830E-002	3,000000000000000E+000
2,9399365E-001	1,404979953646113E-002	3,000000000000000E+000
2,9798612E-001	1,433086532399658E-002	3,000000000000000E+000
3,0196071E-001	1,431999338234646E-002	3,000000000000000E+000
3,0599928E-001	1,479098033530091E-002	3,000000000000000E+000
3,0997175E-001	1,502146789144640E-002	3,000000000000000E+000
3,1400248E-001	1,519049506301107E-002	3,000000000000000E+000
3,1799936E-001	1,536817522901399E-002	3,000000000000000E+000
3,2201058E-001	1,566231435721097E-002	3,000000000000000E+000
3,2597530E-001	1,593233913412079E-002	3,000000000000000E+000
3,2996523E-001	1,621940068881406E-002	3,000000000000000E+000
3,3401030E-001	1,650495985450112E-002	3,000000000000000E+000
3,3802110E-001	1,671320768351014E-002	3,000000000000000E+000
3,4197280E-001	1,686571099178930E-002	3,000000000000000E+000
3,4595710E-001	1,708778953136728E-002	3,000000000000000E+000
3,4997478E-001	1,737303080104041E-002	3,000000000000000E+000
3,5399204E-001	1,770187462154194E-002	3,000000000000000E+000
3,5797244E-001	1,792559008622036E-002	3,000000000000000E+000
3,6193937E-001	1,821469286964703E-002	3,000000000000000E+000
3,6175796E-001	1,787946224641495E-003	3,000000000000000E+000
3,5773021E-001	-1,829101802385316E-003	3,000000000000000E+000
3,5373399E-001	-3,270156479669335E-003	3,000000000000000E+000
3,4974569E-001	-4,079661248990472E-003	3,000000000000000E+000
3,4570220E-001	-4,993052418048219E-003	3,000000000000000E+000
3,4172884E-001	-5,502259325705524E-003	3,000000000000000E+000
3,3766827E-001	-6,229136297564664E-003	3,000000000000000E+000
3,3373269E-001	-6,550665014678402E-003	3,000000000000000E+000
3,2970160E-001	-7,105213196906407E-003	3,000000000000000E+000
3,2570958E-001	-7,300330234537113E-003	3,000000000000000E+000
3,2171088E-001	-7,739884159530863E-003	3,000000000000000E+000
3,1770390E-001	-7,874871016452845E-003	3,000000000000000E+000
3,1370938E-001	-7,958419615929203E-003	3,000000000000000E+000
3,0970183E-001	-8,452997880340263E-003	3,000000000000000E+000
3,0575228E-001	-8,749531522219238E-003	3,000000000000000E+000
3,0175495E-001	-8,684642446083177E-003	3,000000000000000E+000
2,9770774E-001	-8,982579822672587E-003	3,000000000000000E+000
2,9372129E-001	-9,091926813942441E-003	3,000000000000000E+000
2,8972960E-001	-9,270865243541371E-003	3,000000000000000E+000
2,8577873E-001	-9,321039305343060E-003	3,000000000000000E+000
2,8173152E-001	-9,822441092513720E-003	3,000000000000000E+000
2,7770731E-001	-9,684342958197763E-003	3,000000000000000E+000
2,7369872E-001	-9,851025565612029E-003	3,000000000000000E+000
2,6972917E-001	-9,786310764452924E-003	3,000000000000000E+000
2,6576009E-001	-1,012382931995406E-002	3,000000000000000E+000
2,6175019E-001	-9,999780661018975E-003	3,000000000000000E+000
2,5773421E-001	-1,029427432612547E-002	3,000000000000000E+000
2,5374773E-001	-1,030994484443162E-002	3,000000000000000E+000
2,4974306E-001	-1,029511352432809E-002	3,000000000000000E+000
2,4575791E-001	-1,040697099084685E-002	3,000000000000000E+000
2,4174240E-001	-1,065487934416026E-002	3,000000000000000E+000
2,3773684E-001	-1,061612282716275E-002	3,000000000000000E+000
2,3374692E-001	-1,086053711217318E-002	3,000000000000000E+000
2,2974615E-001	-1,074567611232684E-002	3,000000000000000E+000
2,2572581E-001	-1,093550385931764E-002	3,000000000000000E+000
2,2174847E-001	-1,082778476021218E-002	3,000000000000000E+000
2,1771905E-001	-1,109982132766169E-002	3,000000000000000E+000
2,1373518E-001	-1,106908766649378E-002	3,000000000000000E+000
2,0974788E-001	-1,137247230772943E-002	3,000000000000000E+000
2,0576270E-001	-1,122823980370991E-002	3,000000000000000E+000
2,0168340E-001	-1,136653963972505E-002	3,000000000000000E+000
1,9773816E-001	-1,133223238552587E-002	3,000000000000000E+000
1,9370310E-001	-1,152588734542156E-002	3,000000000000000E+000
1,8972225E-001	-1,151311781475008E-002	3,000000000000000E+000
1,8575837E-001	-1,147750770376826E-002	3,000000000000000E+000
1,8174718E-001	-1,167904045856133E-002	3,000000000000000E+000
1,7771517E-001	-1,170960797819791E-002	3,000000000000000E+000
1,7374299E-001	-1,181896937007626E-002	3,000000000000000E+000
1,6971532E-001	-1,207009032937503E-002	3,000000000000000E+000
1,6570456E-001	-1,198450934680292E-002	3,000000000000000E+000
1,6169944E-001	-1,215881101019142E-002	3,000000000000000E+000
1,5776680E-001	-1,202283985350565E-002	3,000000000000000E+000
1,5377252E-001	-1,205958528655832E-002	3,000000000000000E+000
1,4971751E-001	-1,221999491777251E-002	3,000000000000000E+000
1,4574754E-001	-1,240101057092857E-002	3,000000000000000E+000
1,4174372E-001	-1,230047581553989E-002	3,000000000000000E+000
1,3773297E-001	-1,248380576229960E-002	3,000000000000000E+000
1,3375996E-001	-1,252925524336621E-002	3,000000000000000E+000
1,2974788E-001	-1,271853962895295E-002	3,000000000000000E+000
1,2573799E-001	-1,268319689783804E-002	3,000000000000000E+000
1,2172420E-001	-1,273694477557991E-002	3,000000000000000E+000
1,1776032E-001	-1,281849533205040E-002	3,000000000000000E+000
1,1375042E-001	-1,303966413996183E-002	3,000000000000000E+000
1,0974227E-001	-1,294454774274942E-002	3,000000000000000E+000
1,0573671E-001	-1,322902894803105E-002	3,000000000000000E+000
1,0176718E-001	-1,313212497486592E-002	3,000000000000000E+000
9,7767264E-002	-1,335572425639178E-002	3,000000000000000E+000
9,3747817E-002	-1,322040442292659E-002	3,000000000000000E+000
8,9760058E-002	-1,356177183515681E-002	3,000000000000000E+000
8,5749730E-002	-1,348188552599988E-002	3,000000000000000E+000
8,1770211E-002	-1,370372625817905E-002	3,000000000000000E+000
7,7750333E-002	-1,365104188979860E-002	3,000000000000000E+000
7,3750421E-002	-1,386520088734951E-002	3,000000000000000E+000
6,9760062E-002	-1,380229338858704E-002	3,000000000000000E+000
6,5748863E-002	-1,406444763498171E-002	3,000000000000000E+000
6,3269176E-002	-1,431873627007008E-002	3,000000000000000E+000
6,4957790E-002	2,529175471606682E-003	4,000000000000000E+000
6,9004215E-002	3,257055619660998E-003	4,000000000000000E+000
7,2999574E-002	3,894736845050713E-003	4,000000000000000E+000
7,6972529E-002	4,305426663766238E-003	4,000000000000000E+000
8,1036389E-002	4,860369645820872E-003	4,000000000000000E+000
8,4979855E-002	5,128211424285531E-003	4,000000000000000E+000
8,9003876E-002	5,598055364949353E-003	4,000000000000000E+000
9,2985541E-002	5,764232055219577E-003	4,000000000000000E+000
9,7013697E-002	5,961563308949785E-003	4,000000000000000E+000
1,0104766E-001	6,224422313370420E-003	4,000000000000000E+000
1,0500816E-001	6,601140492895619E-003	4,000000000000000E+000
1,0904337E-001	6,749635542054532E-003	4,000000000000000E+000
1,1303625E-001	7,109779972344535E-003	4,000000000000000E+000
1,1700711E-001	7,244711056441505E-003	4,000000000000000E+000
1,2097219E-001	7,417454893109840E-003	4,000000000000000E+000
1,2497833E-001	7,498650166108636E-003	4,000000000000000E+000
1,2902682E-001	7,918488590724387E-003	4,000000000000000E+000
1,3302840E-001	7,978936809471954E-003	4,000000000000000E+000
1,3702503E-001	8,133888545078516E-003	4,000000000000000E+000
1,4102663E-001	8,245346497895545E-003	4,000000000000000E+000
1,4500788E-001	8,352666080969830E-003	4,000000000000000E+000
1,4899160E-001	8,620763500679779E-003	4,000000000000000E+000
1,5300149E-001	8,725245675004364E-003	4,000000000000000E+000
1,5700726E-001	8,800966959350481E-003	4,000000000000000E+000
1,6099223E-001	8,805803972474878E-003	4,000000000000000E+000
1,6501042E-001	9,056379746455290E-003	4,000000000000000E+000
1,6899957E-001	9,348512081171212E-003	4,000000000000000E+000
1,7298664E-001	9,356477275223783E-003	4,000000000000000E+000
1,7701064E-001	9,622727172387879E-003	4,000000000000000E+000
1,8099813E-001	9,581662837777241E-003	4,000000000000000E+000
1,8499596E-001	9,852092692871538E-003	4,000000000000000E+000
1,8896766E-001	9,841726075177144E-003	4,000000000000000E+000
1,9300704E-001	1,003269732230008E-002	4,000000000000000E+000
1,9700572E-001	1,009618418348786E-002	4,000000000000000E+000
2,0096706E-001	1,040552658283245E-002	4,000000000000000E+000
2,0498027E-001	1,040023304180387E-002	4,000000000000000E+000
2,0900719E-001	1,058334989663670E-002	4,000000000000000E+000
2,1300462E-001	1,061327279666847E-002	4,000000000000000E+000
2,1703899E-001	1,087309403911885E-002	4,000000000000000E+000
2,2097044E-001	1,090260933668344E-002	4,000000000000000E+000
2,2497867E-001	1,095830343658002E-002	4,000000000000000E+000
2,2896035E-001	1,118858879588358E-002	4,000000000000000E+000
2,3298682E-001	1,142203743106421E-002	4,000000000000000E+000
2,3704198E-001	1,145362878362546E-002	4,000000000000000E+000
2,4104606E-001	1,168493862037992E-002	4,000000000000000E+000
2,4502151E-001	1,177549634493237E-002	4,000000000000000E+000
2,4903637E-001	1,192586665764915E-002	4,000000000000000E+000
2,5301221E-001	1,196637110194350E-002	4,000000000000000E+000
2,5702789E-001	1,220909954534603E-002	4,000000000000000E+000
2,6098841E-001	1,243977965856652E-002	4,000000000000000E+000
2,6497093E-001	1,270440345172619E-002	4,000000000000000E+000
2,6896629E-001	1,277453278532409E-002	4,000000000000000E+000
2,7299154E-001	1,298995399575574E-002	4,000000000000000E+000
2,7696988E-001	1,315676031663317E-002	4,000000000000000E+000
2,8098515E-001	1,344150180755052E-002	4,000000000000000E+000
2,8501290E-001	1,353477247713553E-002	4,000000000000000E+000
2,8901494E-001	1,371005549789639E-002	4,000000000000000E+000
2,9296127E-001	1,394569099094320E-002	4,000000000000000E+000
2,9700065E-001	1,424134454677900E-002	4,000000000000000E+000
3,0101058E-001	1,434885126851129E-002	4,000000000000000E+000
3,0495486E-001	1,473439344835759E-002	4,000000000000000E+000
3,0897680E-001	1,484278496892608E-002	4,000000000000000E+000
3,1297570E-001	1,514038673849427E-002	4,000000000000000E+000
3,1696782E-001	1,523963408114720E-002	4,000000000000000E+000
3,2096162E-001	1,560444228744018E-002	4,000000000000000E+000
3,2496980E-001	1,575444785521535E-002	4,000000000000000E+000
3,2894453E-001	1,613942736433033E-002	4,000000000000000E+000
3,3295181E-001	1,624148195481800E-002	4,000000000000000E+000
3,3701423E-001	1,659066380588314E-002	4,000000000000000E+000
3,4098420E-001	1,687198295886368E-002	4,000000000000000E+000
3,4499541E-001	1,723587188759917E-002	4,000000000000000E+000
3,4896621E-001	1,733476374515297E-002	4,000000000000000E+000
3,5298309E-001	1,743456878185418E-002	4,000000000000000E+000
3,5698992E-001	1,779118742805709E-002	4,000000000000000E+000
3,6097723E-001	1,819703944734519E-002	4,000000000000000E+000
3,6278492E-001	4,733870608146073E-004	4,000000000000000E+000
3,5872269E-001	-1,441788476174970E-003	4,000000000000000E+000
3,5471243E-001	-2,777011626636999E-003	4,000000000000000E+000
3,5073197E-001	-4,048679136679334E-003	4,000000000000000E+000
3,4674907E-001	-4,658063387424827E-003	4,000000000000000E+000
3,4269601E-001	-5,634035298498916E-003	4,000000000000000E+000
3,3871228E-001	-6,058980860277924E-003	4,000000000000000E+000
3,3472148E-001	-6,680779834309591E-003	4,000000000000000E+000
3,3071822E-001	-6,856706817574276E-003	4,000000000000000E+000
3,2670790E-001	-7,167703397973763E-003	4,000000000000000E+000
3,2272458E-001	-7,493288162431382E-003	4,000000000000000E+000
3,1869352E-001	-8,051178677740828E-003	4,000000000000000E+000
3,1468156E-001	-8,051586443679773E-003	4,000000000000000E+000
3,1073987E-001	-8,577003237736434E-003	4,000000000000000E+000
3,0670959E-001	-8,465449122757651E-003	4,000000000000000E+000
3,0268538E-001	-8,912242876166661E-003	4,000000000000000E+000
2,9869848E-001	-8,888461817563947E-003	4,000000000000000E+000
2,9471204E-001	-9,252922703457074E-003	4,000000000000000E+000
2,9071084E-001	-9,180734071626576E-003	4,000000000000000E+000
2,8675562E-001	-9,519352292458733E-003	4,000000000000000E+000
2,8269452E-001	-9,502538822909495E-003	4,000000000000000E+000
2,7870589E-001	-9,832960280122760E-003	4,000000000000000E+000
2,7476239E-001	-9,759187077096665E-003	4,000000000000000E+000
2,7074555E-001	-9,975768419032846E-003	4,000000000000000E+000
2,6676038E-001	-9,895939146438354E-003	4,000000000000000E+000
2,6272097E-001	-1,001272359016268E-002	4,000000000000000E+000
2,5874493E-001	-1,010060506153174E-002	4,000000000000000E+000
2,5475067E-001	-1,042837103490124E-002	4,000000000000000E+000
2,5074077E-001	-1,033077357434112E-002	4,000000000000000E+000
2,4674869E-001	-1,071607134177940E-002	4,000000000000000E+000
2,4272880E-001	-1,047267748369698E-002	4,000000000000000E+000
2,3869592E-001	-1,081384331568683E-002	4,000000000000000E+000
2,3476456E-001	-1,054170563441981E-002	4,000000000000000E+000
2,3075205E-001	-1,109617509891078E-002	4,000000000000000E+000
2,2674610E-001	-1,081138368466444E-002	4,000000000000000E+000
2,2274312E-001	-1,110044296861318E-002	4,000000000000000E+000
2,1871156E-001	-1,089427995314253E-002	4,000000000000000E+000
2,1470512E-001	-1,123143025341214E-002	4,000000000000000E+000
2,1073385E-001	-1,113845508999391E-002	4,000000000000000E+000
2,0669489E-001	-1,136680782077409E-002	4,000000000000000E+000
2,0273533E-001	-1,114710807963670E-002	4,000000000000000E+000
1,9868942E-001	-1,129976205993442E-002	4,000000000000000E+000
1,9471642E-001	-1,130763417975023E-002	4,000000000000000E+000
1,9070262E-001	-1,169921160313110E-002	4,000000000000000E+000
1,8670531E-001	-1,151720507137223E-002	4,000000000000000E+000
1,8275009E-001	-1,182537917223023E-002	4,000000000000000E+000
1,7871979E-001	-1,166709609837695E-002	4,000000000000000E+000
1,7467128E-001	-1,197048843922939E-002	4,000000000000000E+000
1,7077291E-001	-1,173891587165016E-002	4,000000000000000E+000
1,6673395E-001	-1,205122916094710E-002	4,000000000000000E+000
1,6273098E-001	-1,191318137286793E-002	4,000000000000000E+000
1,5874325E-001	-1,227971195757246E-002	4,000000000000000E+000
1,5471901E-001	-1,207581948041150E-002	4,000000000000000E+000
1,5072866E-001	-1,240703742388922E-002	4,000000000000000E+000
1,4676218E-001	-1,228630928546243E-002	4,000000000000000E+000
1,4276530E-001	-1,249208291714734E-002	4,000000000000000E+000
1,3878576E-001	-1,237107283949709E-002	4,000000000000000E+000
1,3474029E-001	-1,241085024544600E-002	4,000000000000000E+000
1,3072085E-001	-1,252157834328088E-002	4,000000000000000E+000
1,2678126E-001	-1,291433521195856E-002	4,000000000000000E+000
1,2270714E-001	-1,276756254182231E-002	4,000000000000000E+000
1,1873718E-001	-1,301891486384027E-002	4,000000000000000E+000
1,1475854E-001	-1,281852485739032E-002	4,000000000000000E+000
1,1073694E-001	-1,317644550181282E-002	4,000000000000000E+000
1,0674439E-001	-1,304721013134855E-002	4,000000000000000E+000
1,0273537E-001	-1,320007436515874E-002	4,000000000000000E+000
9,8765396E-002	-1,323154646425703E-002	4,000000000000000E+000
9,4745524E-002	-1,343263853910183E-002	4,000000000000000E+000
9,0766869E-002	-1,332253100967629E-002	4,000000000000000E+000
8,6724862E-002	-1,371950628593119E-002	4,000000000000000E+000
8,2761407E-002	-1,366709010802544E-002	4,000000000000000E+000
7,8757592E-002	-1,393283169123937E-002	4,000000000000000E+000
7,4758552E-002	-1,366135948972607E-002	4,000000000000000E+000
7,0733465E-002	-1,378285409108768E-002	4,000000000000000E+000
6,6726170E-002	-1,385576631136326E-002	4,000000000000000E+000
6,3326463E-002	-1,391445379704237E-002	4,000000000000000E+000
6,5839052E-002	1,278635713105656E-003	4,000000000000000E+000
6,9832347E-002	3,302563205144667E-003	4,000000000000000E+000
7,3823974E-002	3,853858826084404E-003	4,000000000000000E+000
7,7845901E-002	4,596485940055572E-003	4,000000000000000E+000
8,1833392E-002	4,803229012000199E-003	4,000000000000000E+000
8,5808821E-002	5,252589201320573E-003	4,000000000000000E+000
8,9854829E-002	5,571633854228639E-003	4,000000000000000E+000
9,3847290E-002	5,847191921613723E-003	4,000000000000000E+000
9,7799480E-002	6,096888737295629E-003	4,000000000000000E+000
1,0184133E-001	6,347783055784748E-003	4,000000000000000E+000
1,0578274E-001	6,450874143806504E-003	4,000000000000000E+000
1,0977105E-001	6,758078278954083E-003	4,000000000000000E+000
1,1379215E-001	7,013069097134284E-003	4,000000000000000E+000
1,1780619E-001	7,300502670066496E-003	4,000000000000000E+000
1,2177458E-001	7,381047132303540E-003	4,000000000000000E+000
1,2579401E-001	7,654778091265434E-003	4,000000000000000E+000
1,2980972E-001	7,688936421049168E-003	4,000000000000000E+000
1,3385695E-001	8,075529716022547E-003	4,000000000000000E+000
1,3474077E-001	7,860733196139336E-003	4,000000000000000E+000