File: fig_si_ecsa/CeO2/300.txt
EC-Lab ASCII FILE
Nb header lines : 59

Cyclic Voltammetry

Run on channel : 1 (SN 10336)
User :
CE vs. WE compliance from -10 V to 10 V
Electrode connection : standard
Potential control : Ewe
Ewe ctrl range : min = -2,50 V, max = 2,50 V
Safety Limits :
	Do not start on E overload
Acquisition started on : 10/13/2024 13:58:28.596
Technique started on : 10/13/2024 14:06:06.407
Loaded Setting File :  C:\EC-lab data\Neethu\Methods\CV_ECSA.mps
Saved on :
	File : CV_ECSA_06_CV_C01.mpr
	Directory : C:\EC-lab data\Neethu\2024_10_13_Ni90Fe10_CeO2\CV_ECSA\
	Host : 10.54.33.65
Device : VMP3 (SN 0498)
Address : USB
EC-Lab for windows v11.52 (software)
Internet server v11.52 (firmware)
Command interpretor v11.50 (firmware)
Electrode material :
Initial state :
Electrolyte :
Comments :
Electrode surface area : 0,001 cm²
Characteristic mass : 0,001 g
Volume (V) : 0,001 cm³
Thickness (t) : 0,000 cm
Diameter (d) : 0,000 cm
Cell constant (k=t/A) : 0,000 cm-1
Cycle Definition : Charge/Discharge alternance
Ei (V)              0,064
vs.                 Ref
dE/dt               300,000
dE/dt unit          mV/s
E1 (V)              0,364
vs.                 Ref
Step percent        50
N                   10
E range min (V)     -2,500
E range max (V)     2,500
I Range             Auto
I Range min         Unset
I Range max         Unset
I Range init        Unset
Bandwidth           5
E2 (V)              0,064
vs.                 Ref
nc cycles           3
Reverse Scan        1
Ef (V)              0,070
vs.                 Eoc

Ewe/V	<I>/mA	cycle number
7,1689956E-002	2,474315837025642E-002	1,000000000000000E+000
7,5587168E-002	6,378260525902617E-003	1,000000000000000E+000
7,9730727E-002	8,222825146852603E-003	1,000000000000000E+000
8,3667420E-002	7,966842729729293E-003	1,000000000000000E+000
8,7676033E-002	9,064389130677836E-003	1,000000000000000E+000
9,1699943E-002	9,109952200803184E-003	1,000000000000000E+000
9,5692016E-002	9,894407409107506E-003	1,000000000000000E+000
9,9737547E-002	1,017473087849795E-002	1,000000000000000E+000
1,0370607E-001	1,063472086971162E-002	1,000000000000000E+000
1,0766885E-001	1,050622093437899E-002	1,000000000000000E+000
1,1169786E-001	1,090101580060338E-002	1,000000000000000E+000
1,1566956E-001	1,106232571983129E-002	1,000000000000000E+000
1,1967945E-001	1,178680694586851E-002	1,000000000000000E+000
1,2366324E-001	1,187657633175457E-002	1,000000000000000E+000
1,2770370E-001	1,233643908417434E-002	1,000000000000000E+000
1,3167220E-001	1,193994585082694E-002	1,000000000000000E+000
1,3568401E-001	1,238864612241747E-002	1,000000000000000E+000
1,3972828E-001	1,235556042956887E-002	1,000000000000000E+000
1,4365225E-001	1,293700494643418E-002	1,000000000000000E+000
1,4771369E-001	1,247799139491694E-002	1,000000000000000E+000
1,5173377E-001	1,323122825003037E-002	1,000000000000000E+000
1,5559982E-001	1,314672186114575E-002	1,000000000000000E+000
1,5968992E-001	1,355081252283229E-002	1,000000000000000E+000
1,6364951E-001	1,348358080904294E-002	1,000000000000000E+000
1,6764160E-001	1,383854237695531E-002	1,000000000000000E+000
1,7168333E-001	1,369758547079986E-002	1,000000000000000E+000
1,7567283E-001	1,431177505025222E-002	1,000000000000000E+000
1,7964327E-001	1,413902671665709E-002	1,000000000000000E+000
1,8364680E-001	1,466900744914408E-002	1,000000000000000E+000
1,8770505E-001	1,449018968269228E-002	1,000000000000000E+000
1,9166403E-001	1,491163928682612E-002	1,000000000000000E+000
1,9566819E-001	1,463354541738227E-002	1,000000000000000E+000
1,9969656E-001	1,500556925954394E-002	1,000000000000000E+000
2,0364088E-001	1,479532089833817E-002	1,000000000000000E+000
2,0771378E-001	1,553022225719664E-002	1,000000000000000E+000
2,1171667E-001	1,505058143908780E-002	1,000000000000000E+000
2,1566863E-001	1,569059830908373E-002	1,000000000000000E+000
2,1965119E-001	1,553198377526618E-002	1,000000000000000E+000
2,2371326E-001	1,603706964645726E-002	1,000000000000000E+000
2,2763406E-001	1,579982841431049E-002	1,000000000000000E+000
2,3168723E-001	1,662027592331772E-002	1,000000000000000E+000
2,3573022E-001	1,626404136162207E-002	1,000000000000000E+000
2,3965673E-001	1,660111200108083E-002	1,000000000000000E+000
2,4368253E-001	1,641800756127243E-002	1,000000000000000E+000
2,4772170E-001	1,708516846871738E-002	1,000000000000000E+000
2,5164250E-001	1,730002115812870E-002	1,000000000000000E+000
2,5569758E-001	1,743972542086947E-002	1,000000000000000E+000
2,5969923E-001	1,747429786058402E-002	1,000000000000000E+000
2,6361358E-001	1,760243635411220E-002	1,000000000000000E+000
2,6767758E-001	1,775568198584856E-002	1,000000000000000E+000
2,7168307E-001	1,834943520055581E-002	1,000000000000000E+000
2,7564266E-001	1,807244297888247E-002	1,000000000000000E+000
2,7966911E-001	1,883841361038019E-002	1,000000000000000E+000
2,8370127E-001	1,862532300425915E-002	1,000000000000000E+000
2,8764051E-001	1,940372822743180E-002	1,000000000000000E+000
2,9168731E-001	1,936090211117214E-002	1,000000000000000E+000
2,9572138E-001	1,988941847594111E-002	1,000000000000000E+000
2,9963008E-001	1,985994022640322E-002	1,000000000000000E+000
3,0372149E-001	2,028765191207643E-002	1,000000000000000E+000
3,0769059E-001	2,029911073332188E-002	1,000000000000000E+000
3,1168079E-001	2,092257559343130E-002	1,000000000000000E+000
3,1571230E-001	2,123114621887601E-002	1,000000000000000E+000
3,1963754E-001	2,171102084563858E-002	1,000000000000000E+000
3,2365760E-001	2,176505188447969E-002	1,000000000000000E+000
3,2763442E-001	2,214707381766251E-002	1,000000000000000E+000
3,3165196E-001	2,230657754189447E-002	1,000000000000000E+000
3,3568284E-001	2,331303795435814E-002	1,000000000000000E+000
3,3971566E-001	2,307863994404513E-002	1,000000000000000E+000
3,4363580E-001	2,376354193766012E-002	1,000000000000000E+000
3,4767815E-001	2,394526688318976E-002	1,000000000000000E+000
3,5170713E-001	2,467647569404412E-002	1,000000000000000E+000
3,5562918E-001	2,457291249957051E-002	1,000000000000000E+000
3,5969448E-001	2,514349127595786E-002	1,000000000000000E+000
3,6324745E-001	2,538427896797657E-002	1,000000000000000E+000
3,6081213E-001	-2,234468726175956E-003	1,000000000000000E+000
3,5671633E-001	-4,428222413207547E-003	1,000000000000000E+000
3,5272679E-001	-5,250622978989348E-003	1,000000000000000E+000
3,4873280E-001	-6,897672809463948E-003	1,000000000000000E+000
3,4472039E-001	-7,399703974503291E-003	1,000000000000000E+000
3,4068182E-001	-8,524902089569270E-003	1,000000000000000E+000
3,3673880E-001	-9,164303696403905E-003	1,000000000000000E+000
3,3270663E-001	-1,013971593723302E-002	1,000000000000000E+000
3,2872027E-001	-9,992901412018293E-003	1,000000000000000E+000
3,2472882E-001	-1,081873942530365E-002	1,000000000000000E+000
3,2072848E-001	-1,075849026055949E-002	1,000000000000000E+000
3,1668678E-001	-1,153222802919729E-002	1,000000000000000E+000
3,1270298E-001	-1,185384992337879E-002	1,000000000000000E+000
3,0870581E-001	-1,207608783831041E-002	1,000000000000000E+000
3,0474427E-001	-1,215248769149183E-002	1,000000000000000E+000
3,0076814E-001	-1,238007441376490E-002	1,000000000000000E+000
2,9670095E-001	-1,259874704689234E-002	1,000000000000000E+000
2,9276806E-001	-1,313925301292329E-002	1,000000000000000E+000
2,8874546E-001	-1,285466420752832E-002	1,000000000000000E+000
2,8472027E-001	-1,346333629141255E-002	1,000000000000000E+000
2,8072566E-001	-1,316085705875594E-002	1,000000000000000E+000
2,7671513E-001	-1,386511401433375E-002	1,000000000000000E+000
2,7272180E-001	-1,367419963316932E-002	1,000000000000000E+000
2,6875454E-001	-1,409944892657222E-002	1,000000000000000E+000
2,6471919E-001	-1,381439267218716E-002	1,000000000000000E+000
2,6073793E-001	-1,430778625496415E-002	1,000000000000000E+000
2,5676560E-001	-1,412045917119639E-002	1,000000000000000E+000
2,5271055E-001	-1,463895795823184E-002	1,000000000000000E+000
2,4873245E-001	-1,461383074650560E-002	1,000000000000000E+000
2,4476328E-001	-1,486841215676880E-002	1,000000000000000E+000
2,4076678E-001	-1,447334011609203E-002	1,000000000000000E+000
2,3673779E-001	-1,470273029444796E-002	1,000000000000000E+000
2,3280361E-001	-1,471548452973367E-002	1,000000000000000E+000
2,2875747E-001	-1,545883270215806E-002	1,000000000000000E+000
2,2469662E-001	-1,476979207824725E-002	1,000000000000000E+000
2,2074085E-001	-1,537946129816796E-002	1,000000000000000E+000
2,1679078E-001	-1,521462891335734E-002	1,000000000000000E+000
2,1267079E-001	-1,574800562605866E-002	1,000000000000000E+000
2,0876655E-001	-1,547640388938210E-002	1,000000000000000E+000
2,0471846E-001	-1,609602785101735E-002	1,000000000000000E+000
2,0070092E-001	-1,558219675231765E-002	1,000000000000000E+000
1,9676489E-001	-1,586704114536888E-002	1,000000000000000E+000
1,9278361E-001	-1,577654994337832E-002	1,000000000000000E+000
1,8870373E-001	-1,640521229940833E-002	1,000000000000000E+000
1,8475620E-001	-1,609558184512322E-002	1,000000000000000E+000
1,8076284E-001	-1,649177838844480E-002	1,000000000000000E+000
1,7671095E-001	-1,610604433662954E-002	1,000000000000000E+000
1,7277171E-001	-1,623713388010706E-002	1,000000000000000E+000
1,6875735E-001	-1,631616556223886E-002	1,000000000000000E+000
1,6470291E-001	-1,674013968428575E-002	1,000000000000000E+000
1,6073948E-001	-1,639999232029363E-002	1,000000000000000E+000
1,5678051E-001	-1,701233731303845E-002	1,000000000000000E+000
1,5273815E-001	-1,688328427444502E-002	1,000000000000000E+000
1,4877217E-001	-1,728599513056298E-002	1,000000000000000E+000
1,4472410E-001	-1,699429782214185E-002	1,000000000000000E+000
1,4069891E-001	-1,741375383074524E-002	1,000000000000000E+000
1,3672340E-001	-1,726383906328309E-002	1,000000000000000E+000
1,3273960E-001	-1,756829178666516E-002	1,000000000000000E+000
1,2873164E-001	-1,737160463271720E-002	1,000000000000000E+000
1,2475355E-001	-1,772868947264211E-002	1,000000000000000E+000
1,2077677E-001	-1,767902858555317E-002	1,000000000000000E+000
1,1674459E-001	-1,810506384305580E-002	1,000000000000000E+000
1,1272323E-001	-1,780150248572071E-002	1,000000000000000E+000
1,0874071E-001	-1,794683218601373E-002	1,000000000000000E+000
1,0473528E-001	-1,793157351385161E-002	1,000000000000000E+000
1,0078903E-001	-1,840068738735373E-002	1,000000000000000E+000
9,6758127E-002	-1,808517781610133E-002	1,000000000000000E+000
9,2750795E-002	-1,869508253003004E-002	1,000000000000000E+000
8,8790543E-002	-1,831590619452378E-002	1,000000000000000E+000
8,4765367E-002	-1,886638821755086E-002	1,000000000000000E+000
8,0709018E-002	-1,864372540221662E-002	1,000000000000000E+000
7,6763406E-002	-1,952051770798174E-002	1,000000000000000E+000
7,2736323E-002	-1,882182041760336E-002	1,000000000000000E+000
6,8690158E-002	-1,908457103345425E-002	1,000000000000000E+000
6,4780191E-002	-1,903769127723837E-002	1,000000000000000E+000
6,3154608E-002	-1,823995076119900E-002	2,000000000000000E+000
6,6928342E-002	3,076392569816275E-003	2,000000000000000E+000
7,0861861E-002	5,505712006197441E-003	2,000000000000000E+000
7,4941136E-002	7,064775731305400E-003	2,000000000000000E+000
7,8859374E-002	7,178780788065817E-003	2,000000000000000E+000
8,2915097E-002	8,243559031567829E-003	2,000000000000000E+000
8,6881705E-002	8,473925492035059E-003	2,000000000000000E+000
9,0876959E-002	9,049575775437311E-003	2,000000000000000E+000
9,4867766E-002	9,029796470773996E-003	2,000000000000000E+000
9,8908842E-002	9,536602482330642E-003	2,000000000000000E+000
1,0288499E-001	9,454705807244557E-003	2,000000000000000E+000
1,0690761E-001	1,038748245664461E-002	2,000000000000000E+000
1,1089078E-001	1,040172244089871E-002	2,000000000000000E+000
1,1485484E-001	1,080812660099281E-002	2,000000000000000E+000
1,1887494E-001	1,063346821429151E-002	2,000000000000000E+000
1,2290137E-001	1,114311834947637E-002	2,000000000000000E+000
1,2686926E-001	1,120039720966207E-002	2,000000000000000E+000
1,3093643E-001	1,185928102604523E-002	2,000000000000000E+000
1,3494951E-001	1,142758019268514E-002	2,000000000000000E+000
1,3884799E-001	1,211649310935170E-002	2,000000000000000E+000
1,4291202E-001	1,185081249980915E-002	2,000000000000000E+000
1,4692892E-001	1,238062428953227E-002	2,000000000000000E+000
1,5084778E-001	1,234017383564306E-002	2,000000000000000E+000
1,5487486E-001	1,277919766568326E-002	2,000000000000000E+000
1,5890257E-001	1,252359785139560E-002	2,000000000000000E+000
1,6286598E-001	1,302261486307546E-002	2,000000000000000E+000
1,6688862E-001	1,296643973510073E-002	2,000000000000000E+000
1,7089789E-001	1,365376182414670E-002	2,000000000000000E+000
1,7485240E-001	1,349650566456456E-002	2,000000000000000E+000
1,7885974E-001	1,405352225762424E-002	2,000000000000000E+000
1,8289319E-001	1,372587438030071E-002	2,000000000000000E+000
1,8686363E-001	1,377982065338679E-002	2,000000000000000E+000
1,9087096E-001	1,380380197224437E-002	2,000000000000000E+000
1,9488914E-001	1,431447060907279E-002	2,000000000000000E+000
1,9886975E-001	1,407453280735360E-002	2,000000000000000E+000
2,0289108E-001	1,475018179686841E-002	2,000000000000000E+000
2,0693600E-001	1,453641169415884E-002	2,000000000000000E+000
2,1090323E-001	1,509620909782827E-002	2,000000000000000E+000
2,1486479E-001	1,505166432252739E-002	2,000000000000000E+000
2,1886447E-001	1,543302581485478E-002	2,000000000000000E+000
2,2283044E-001	1,531916877405219E-002	2,000000000000000E+000
2,2687662E-001	1,578522670800647E-002	2,000000000000000E+000
2,3090686E-001	1,563512398230771E-002	2,000000000000000E+000
2,3487987E-001	1,620287948341376E-002	2,000000000000000E+000
2,3889488E-001	1,608121224647525E-002	2,000000000000000E+000
2,4291049E-001	1,646030273417026E-002	2,000000000000000E+000
2,4686626E-001	1,616938952356578E-002	2,000000000000000E+000
2,5085515E-001	1,657165593072326E-002	2,000000000000000E+000
2,5490639E-001	1,677078410042063E-002	2,000000000000000E+000
2,5886282E-001	1,719267978878630E-002	2,000000000000000E+000
2,6285872E-001	1,690178796222125E-002	2,000000000000000E+000
2,6690680E-001	1,765689200025611E-002	2,000000000000000E+000
2,7089635E-001	1,766930721229688E-002	2,000000000000000E+000
2,7485847E-001	1,818797762837979E-002	2,000000000000000E+000
2,7888429E-001	1,821734760984935E-002	2,000000000000000E+000
2,8284770E-001	1,882360074669120E-002	2,000000000000000E+000
2,8690726E-001	1,858703813377366E-002	2,000000000000000E+000
2,9091462E-001	1,909802438070379E-002	2,000000000000000E+000
2,9488313E-001	1,900538940111196E-002	2,000000000000000E+000
2,9888478E-001	1,982318405061961E-002	2,000000000000000E+000
3,0289337E-001	1,995560895181072E-002	2,000000000000000E+000
3,0687463E-001	2,049698826910271E-002	2,000000000000000E+000
3,1088710E-001	2,083193669459429E-002	2,000000000000000E+000
3,1481931E-001	2,086867294177253E-002	2,000000000000000E+000
3,1886423E-001	2,095440865377890E-002	2,000000000000000E+000
3,2288110E-001	2,166291051083435E-002	2,000000000000000E+000
3,2684007E-001	2,144096908814397E-002	2,000000000000000E+000
3,3082709E-001	2,239997780658698E-002	2,000000000000000E+000
3,3487257E-001	2,223584561555375E-002	2,000000000000000E+000
3,3884558E-001	2,294907992642647E-002	2,000000000000000E+000
3,4285548E-001	2,310448761345468E-002	2,000000000000000E+000
3,4686089E-001	2,391334777591206E-002	2,000000000000000E+000
3,5084024E-001	2,376381796323884E-002	2,000000000000000E+000
3,5487494E-001	2,432569512263100E-002	2,000000000000000E+000
3,5886893E-001	2,443112713808665E-002	2,000000000000000E+000
3,6277556E-001	2,523757923427186E-002	2,000000000000000E+000
3,6157593E-001	1,971780394865175E-003	2,000000000000000E+000
3,5770097E-001	-2,473578624903890E-003	2,000000000000000E+000
3,5374963E-001	-5,485149179852052E-003	2,000000000000000E+000
3,4970984E-001	-6,459096260793246E-003	2,000000000000000E+000
3,4573558E-001	-7,732891771168690E-003	2,000000000000000E+000
3,4171167E-001	-8,440140611007020E-003	2,000000000000000E+000
3,3773294E-001	-9,373936098624386E-003	2,000000000000000E+000
3,3375427E-001	-9,766333022465309E-003	2,000000000000000E+000
3,2971445E-001	-1,057557606448731E-002	2,000000000000000E+000
3,2571602E-001	-1,080333251120464E-002	2,000000000000000E+000
3,2174304E-001	-1,129144143912221E-002	2,000000000000000E+000
3,1770581E-001	-1,139398701125174E-002	2,000000000000000E+000
3,1373218E-001	-1,180295869344264E-002	2,000000000000000E+000
3,0972931E-001	-1,230513759813524E-002	2,000000000000000E+000
3,0572131E-001	-1,265390245243911E-002	2,000000000000000E+000
3,0175152E-001	-1,242981810828495E-002	2,000000000000000E+000
2,9774225E-001	-1,307883335854665E-002	2,000000000000000E+000
2,9373044E-001	-1,303085004268117E-002	2,000000000000000E+000
2,8977469E-001	-1,345680019743059E-002	2,000000000000000E+000
2,8574505E-001	-1,337607039010133E-002	2,000000000000000E+000
2,8170460E-001	-1,412071336938731E-002	2,000000000000000E+000
2,7774179E-001	-1,370968309905343E-002	2,000000000000000E+000
2,7374908E-001	-1,403924094641601E-002	2,000000000000000E+000
2,6972073E-001	-1,400189053031986E-002	2,000000000000000E+000
2,6575157E-001	-1,430148345086005E-002	2,000000000000000E+000
2,6176587E-001	-1,438327398621669E-002	2,000000000000000E+000
2,5771970E-001	-1,463762104746513E-002	2,000000000000000E+000
2,5376388E-001	-1,440360394723632E-002	2,000000000000000E+000
2,4974257E-001	-1,459148453420009E-002	2,000000000000000E+000
2,4573776E-001	-1,461612238708761E-002	2,000000000000000E+000
2,4178199E-001	-1,499756953089668E-002	2,000000000000000E+000
2,3774661E-001	-1,468978420113368E-002	2,000000000000000E+000
2,3373099E-001	-1,539820018127402E-002	2,000000000000000E+000
2,2974591E-001	-1,492605061430367E-002	2,000000000000000E+000
2,2576594E-001	-1,545620109585186E-002	2,000000000000000E+000
2,2169621E-001	-1,514285644516350E-002	2,000000000000000E+000
2,1778117E-001	-1,554766800339469E-002	2,000000000000000E+000
2,1371907E-001	-1,551740559310319E-002	2,000000000000000E+000
2,0972127E-001	-1,575106242307805E-002	2,000000000000000E+000
2,0574638E-001	-1,564202270759170E-002	2,000000000000000E+000
2,0173332E-001	-1,600564269926200E-002	2,000000000000000E+000
1,9770688E-001	-1,600812574955246E-002	2,000000000000000E+000
1,9373454E-001	-1,617694697160915E-002	2,000000000000000E+000
1,8971190E-001	-1,602187813077766E-002	2,000000000000000E+000
1,8567784E-001	-1,612232267470967E-002	2,000000000000000E+000
1,8174049E-001	-1,616782108770462E-002	2,000000000000000E+000
1,7771596E-001	-1,662153017374904E-002	2,000000000000000E+000
1,7369525E-001	-1,641858358149565E-002	2,000000000000000E+000
1,6975854E-001	-1,673464336357330E-002	2,000000000000000E+000
1,6573785E-001	-1,664750652622995E-002	2,000000000000000E+000
1,6166750E-001	-1,687950654062051E-002	2,000000000000000E+000
1,5774225E-001	-1,676724246948039E-002	2,000000000000000E+000
1,5377818E-001	-1,712230949694153E-002	2,000000000000000E+000
1,4970399E-001	-1,682464822612625E-002	2,000000000000000E+000
1,4574502E-001	-1,734308213381153E-002	2,000000000000000E+000
1,4175740E-001	-1,706592150245942E-002	2,000000000000000E+000
1,3775387E-001	-1,749870535071139E-002	2,000000000000000E+000
1,3379045E-001	-1,748539880645692E-002	2,000000000000000E+000
1,2976401E-001	-1,789458325753610E-002	2,000000000000000E+000
1,2571210E-001	-1,753811390578144E-002	2,000000000000000E+000
1,2177987E-001	-1,746027217814117E-002	2,000000000000000E+000
1,1772224E-001	-1,774023433354158E-002	2,000000000000000E+000
1,1373080E-001	-1,827116872215500E-002	2,000000000000000E+000
1,0976164E-001	-1,803944633866196E-002	2,000000000000000E+000
1,0575431E-001	-1,855420867686915E-002	2,000000000000000E+000
1,0171385E-001	-1,832768364499013E-002	2,000000000000000E+000
9,7763792E-002	-1,863994764741317E-002	2,000000000000000E+000
9,3806088E-002	-1,835975017226393E-002	2,000000000000000E+000
8,9752272E-002	-1,876388312242243E-002	2,000000000000000E+000
8,5776128E-002	-1,864266377027278E-002	2,000000000000000E+000
8,1742667E-002	-1,903794558226460E-002	2,000000000000000E+000
7,7720694E-002	-1,890923449876331E-002	2,000000000000000E+000
7,3766798E-002	-1,912014010522394E-002	2,000000000000000E+000
6,9777913E-002	-1,924556464170260E-002	2,000000000000000E+000
6,5749563E-002	-1,954617383065246E-002	2,000000000000000E+000
6,3097328E-002	-1,952410116791725E-002	2,000000000000000E+000
6,5823406E-002	7,721006065154759E-003	3,000000000000000E+000
6,9879115E-002	6,782733372832204E-003	3,000000000000000E+000
7,3855922E-002	6,746252246375678E-003	3,000000000000000E+000
7,7899538E-002	7,883334395895308E-003	3,000000000000000E+000
8,1913881E-002	7,693863004533343E-003	3,000000000000000E+000
8,5888781E-002	8,461424832542697E-003	3,000000000000000E+000
8,9943230E-002	8,482901437916260E-003	3,000000000000000E+000
9,3892016E-002	9,279559472815890E-003	3,000000000000000E+000
9,7867534E-002	9,313749207891922E-003	3,000000000000000E+000
1,0189016E-001	1,009875507340136E-002	3,000000000000000E+000
1,0584786E-001	9,923779205685906E-003	3,000000000000000E+000
1,0988703E-001	1,027020895489843E-002	3,000000000000000E+000
1,1389057E-001	1,031131618753234E-002	3,000000000000000E+000
1,1786035E-001	1,108040686097719E-002	3,000000000000000E+000
1,2185178E-001	1,069497093109628E-002	3,000000000000000E+000
1,2588969E-001	1,142460818264224E-002	3,000000000000000E+000
1,2986585E-001	1,104836118696156E-002	3,000000000000000E+000
1,3389802E-001	1,180206548209151E-002	3,000000000000000E+000
1,3791557E-001	1,177488030031479E-002	3,000000000000000E+000
1,4184843E-001	1,218945484094242E-002	3,000000000000000E+000
1,4588568E-001	1,174137004854857E-002	3,000000000000000E+000
1,4991595E-001	1,230596367398295E-002	3,000000000000000E+000
1,5386091E-001	1,223934845656913E-002	3,000000000000000E+000
1,5789118E-001	1,294095204757467E-002	3,000000000000000E+000
1,6189726E-001	1,290633828090604E-002	3,000000000000000E+000
1,6585495E-001	1,326102440919691E-002	3,000000000000000E+000
1,6986041E-001	1,278859750442887E-002	3,000000000000000E+000
1,7392375E-001	1,321522718317285E-002	3,000000000000000E+000
1,7786808E-001	1,334385447868652E-002	3,000000000000000E+000
1,8186651E-001	1,413064410032042E-002	3,000000000000000E+000
1,8593305E-001	1,375505474449407E-002	3,000000000000000E+000
1,8987677E-001	1,423486563859722E-002	3,000000000000000E+000
1,9386949E-001	1,400694004357020E-002	3,000000000000000E+000
1,9791374E-001	1,446692921842136E-002	3,000000000000000E+000
2,0182751E-001	1,441461758816634E-002	3,000000000000000E+000
2,0587431E-001	1,493345621396053E-002	3,000000000000000E+000
2,0990078E-001	1,466336170960858E-002	3,000000000000000E+000
2,1384831E-001	1,499742023176318E-002	3,000000000000000E+000
2,1789955E-001	1,495034948784452E-002	3,000000000000000E+000
2,2192982E-001	1,567292000242262E-002	3,000000000000000E+000
2,2585060E-001	1,547568208976981E-002	3,000000000000000E+000
2,2986177E-001	1,576073680116682E-002	3,000000000000000E+000
2,3393087E-001	1,550108532646854E-002	3,000000000000000E+000
2,3784082E-001	1,590984327012848E-002	3,000000000000000E+000
2,4189460E-001	1,587132608583486E-002	3,000000000000000E+000
2,4591407E-001	1,657303620643991E-002	3,000000000000000E+000
2,4986286E-001	1,633358605249671E-002	3,000000000000000E+000
2,5387341E-001	1,697415507260307E-002	3,000000000000000E+000
2,5786227E-001	1,681276056830640E-002	3,000000000000000E+000
2,6186007E-001	1,739165780745680E-002	3,000000000000000E+000
2,6591900E-001	1,731973724975736E-002	3,000000000000000E+000
2,6989767E-001	1,769889102627834E-002	3,000000000000000E+000
2,7386239E-001	1,773573223629987E-002	3,000000000000000E+000
2,7785957E-001	1,815671663389372E-002	3,000000000000000E+000
2,8190699E-001	1,797766450836213E-002	3,000000000000000E+000
2,8587362E-001	1,879013320710027E-002	3,000000000000000E+000
2,8986630E-001	1,902117949236222E-002	3,000000000000000E+000
2,9392713E-001	1,949445383046014E-002	3,000000000000000E+000
2,9788038E-001	1,940141568581266E-002	3,000000000000000E+000
3,0188835E-001	1,978903867347978E-002	3,000000000000000E+000
3,0587786E-001	1,969920522266572E-002	3,000000000000000E+000
3,0985531E-001	2,055292731771871E-002	3,000000000000000E+000
3,1387794E-001	2,041349898039097E-002	3,000000000000000E+000
3,1784391E-001	2,140852132749088E-002	3,000000000000000E+000
3,2187161E-001	2,119250106528248E-002	3,000000000000000E+000
3,2586816E-001	2,180584258433860E-002	3,000000000000000E+000
3,2980421E-001	2,180325175067988E-002	3,000000000000000E+000
3,3387905E-001	2,283097786979249E-002	3,000000000000000E+000
3,3788258E-001	2,236816607158593E-002	3,000000000000000E+000
3,4183455E-001	2,324517015367755E-002	3,000000000000000E+000
3,4585652E-001	2,314871456304296E-002	3,000000000000000E+000
3,4992942E-001	2,404755841683554E-002	3,000000000000000E+000
3,5378402E-001	2,426200700817102E-002	3,000000000000000E+000
3,5782126E-001	2,480234400936752E-002	3,000000000000000E+000
3,6191007E-001	2,478997118087140E-002	3,000000000000000E+000
3,6301887E-001	8,091038962447891E-004	3,000000000000000E+000
3,5874993E-001	-3,966259308875401E-003	3,000000000000000E+000
3,5472155E-001	-5,226472485810520E-003	3,000000000000000E+000
3,5069641E-001	-6,421915357289726E-003	3,000000000000000E+000
3,4666997E-001	-7,573937464439948E-003	3,000000000000000E+000
3,4272054E-001	-8,505378122087362E-003	3,000000000000000E+000
3,3874816E-001	-9,072539651788253E-003	3,000000000000000E+000
3,3471796E-001	-9,797785180004820E-003	3,000000000000000E+000
3,3072779E-001	-1,033145874995778E-002	3,000000000000000E+000
3,2671595E-001	-1,049353141230924E-002	3,000000000000000E+000
3,2269460E-001	-1,109061644444104E-002	3,000000000000000E+000
3,1872863E-001	-1,145903334278653E-002	3,000000000000000E+000
3,1471238E-001	-1,196999800037396E-002	3,000000000000000E+000
3,1075394E-001	-1,233755281295346E-002	3,000000000000000E+000
3,0673268E-001	-1,240112648398886E-002	3,000000000000000E+000
3,0267632E-001	-1,267631319254481E-002	3,000000000000000E+000
2,9875427E-001	-1,288265592193055E-002	3,000000000000000E+000
2,9471067E-001	-1,320597490509198E-002	3,000000000000000E+000
2,9069504E-001	-1,339194548369657E-002	3,000000000000000E+000
2,8677869E-001	-1,362135631449444E-002	3,000000000000000E+000
2,8273571E-001	-1,368434396839197E-002	3,000000000000000E+000
2,7868700E-001	-1,371242069799336E-002	3,000000000000000E+000
2,7477640E-001	-1,387793150012540E-002	3,000000000000000E+000
2,7079642E-001	-1,409643492564405E-002	3,000000000000000E+000
2,6668337E-001	-1,419274196414333E-002	3,000000000000000E+000
2,6274672E-001	-1,416445231043326E-002	3,000000000000000E+000
2,5873363E-001	-1,437081649128233E-002	3,000000000000000E+000
2,5472692E-001	-1,456752391253147E-002	3,000000000000000E+000
2,5074884E-001	-1,460139518324768E-002	3,000000000000000E+000
2,4671479E-001	-1,487929883187461E-002	3,000000000000000E+000
2,4272971E-001	-1,471476251366158E-002	3,000000000000000E+000
2,3876183E-001	-1,494479019687178E-002	3,000000000000000E+000
2,3473285E-001	-1,505860423797761E-002	3,000000000000000E+000
2,3071213E-001	-1,548315348166701E-002	3,000000000000000E+000
2,2671750E-001	-1,542655323149422E-002	3,000000000000000E+000
2,2275726E-001	-1,539809483862570E-002	3,000000000000000E+000
2,1873783E-001	-1,531157167992206E-002	3,000000000000000E+000
2,1476611E-001	-1,561551548390220E-002	3,000000000000000E+000
2,1075366E-001	-1,577871427131561E-002	3,000000000000000E+000
2,0671514E-001	-1,585636676342497E-002	3,000000000000000E+000
2,0272624E-001	-1,584199822924948E-002	3,000000000000000E+000
1,9872908E-001	-1,574879129705849E-002	3,000000000000000E+000
1,9470456E-001	-1,604520003857030E-002	3,000000000000000E+000
1,9076274E-001	-1,631381021191677E-002	3,000000000000000E+000
1,8673122E-001	-1,624946439830330E-002	3,000000000000000E+000
1,8272008E-001	-1,638611277073021E-002	3,000000000000000E+000
1,7877765E-001	-1,654133183110384E-002	3,000000000000000E+000
1,7469199E-001	-1,638859727087644E-002	3,000000000000000E+000
1,7070693E-001	-1,659341188254379E-002	3,000000000000000E+000
1,6672821E-001	-1,673763665445827E-002	3,000000000000000E+000
1,6274443E-001	-1,686985054705776E-002	3,000000000000000E+000
1,5875617E-001	-1,693260526905457E-002	3,000000000000000E+000
1,5476029E-001	-1,696613459280341E-002	3,000000000000000E+000
1,5074275E-001	-1,720405757769186E-002	3,000000000000000E+000
1,4671759E-001	-1,716925219043332E-002	3,000000000000000E+000
1,4279427E-001	-1,741016661726465E-002	3,000000000000000E+000
1,3875954E-001	-1,752828939206663E-002	3,000000000000000E+000
1,3472100E-001	-1,716772516568499E-002	3,000000000000000E+000
1,3076076E-001	-1,762669546636368E-002	3,000000000000000E+000
1,2676360E-001	-1,768573518541722E-002	3,000000000000000E+000
1,2270278E-001	-1,777614283406963E-002	3,000000000000000E+000
1,1875590E-001	-1,797189504335012E-002	3,000000000000000E+000
1,1476063E-001	-1,809980031102892E-002	3,000000000000000E+000
1,1070239E-001	-1,808676995036268E-002	3,000000000000000E+000
1,0674021E-001	-1,815020319202934E-002	3,000000000000000E+000
1,0275769E-001	-1,806639699243528E-002	3,000000000000000E+000
9,8729983E-002	-1,824616985116634E-002	3,000000000000000E+000
9,4798371E-002	-1,872322187555259E-002	3,000000000000000E+000
9,0763032E-002	-1,870615963234735E-002	3,000000000000000E+000
8,6721301E-002	-1,894858125597237E-002	3,000000000000000E+000
8,2771882E-002	-1,888304707475374E-002	3,000000000000000E+000
7,8737803E-002	-1,913162132574744E-002	3,000000000000000E+000
7,4708812E-002	-1,924681502811532E-002	3,000000000000000E+000
7,0812218E-002	-1,890471346632691E-002	3,000000000000000E+000
6,6727221E-002	-1,921627627149664E-002	3,000000000000000E+000
6,3326463E-002	-1,936557143926620E-002	3,000000000000000E+000
6,5029696E-002	6,115899855634217E-004	4,000000000000000E+000
6,8889380E-002	4,438408035730382E-003	4,000000000000000E+000
7,2869360E-002	6,511980938012141E-003	4,000000000000000E+000
7,6904707E-002	7,113947232695247E-003	4,000000000000000E+000
8,0911420E-002	7,789511428503204E-003	4,000000000000000E+000
8,4872298E-002	8,294661363652284E-003	4,000000000000000E+000
8,8905752E-002	8,599559755505972E-003	4,000000000000000E+000
9,2947468E-002	8,797690168709474E-003	4,000000000000000E+000
9,6890524E-002	8,997751399874687E-003	4,000000000000000E+000
1,0090678E-001	9,405428371125416E-003	4,000000000000000E+000
1,0490013E-001	9,993918067508933E-003	4,000000000000000E+000
1,0891066E-001	1,002780976887152E-002	4,000000000000000E+000
1,1286454E-001	1,047309266274782E-002	4,000000000000000E+000
1,1688589E-001	1,042035564908778E-002	4,000000000000000E+000
1,2086778E-001	1,097703374580308E-002	4,000000000000000E+000
1,2484584E-001	1,088293482389421E-002	4,000000000000000E+000
1,2891302E-001	1,165034856518710E-002	4,000000000000000E+000
1,3292673E-001	1,150206887881117E-002	4,000000000000000E+000
1,3687998E-001	1,185607554155772E-002	4,000000000000000E+000
1,4091851E-001	1,177093329315546E-002	4,000000000000000E+000
1,4485458E-001	1,222602092736147E-002	4,000000000000000E+000
1,4885810E-001	1,232644386376100E-002	4,000000000000000E+000
1,5295203E-001	1,258371991522533E-002	4,000000000000000E+000
1,5687662E-001	1,248427239964561E-002	4,000000000000000E+000
1,6087125E-001	1,264131651720765E-002	4,000000000000000E+000
1,6487667E-001	1,283683663641574E-002	4,000000000000000E+000
1,6883375E-001	1,318956972281743E-002	4,000000000000000E+000
1,7289901E-001	1,310461708441532E-002	4,000000000000000E+000
1,7685989E-001	1,350554606930623E-002	4,000000000000000E+000
1,8086277E-001	1,342333185433135E-002	4,000000000000000E+000
1,8487395E-001	1,391345695325680E-002	4,000000000000000E+000
1,8892905E-001	1,385276132981138E-002	4,000000000000000E+000
1,9283837E-001	1,414760039648777E-002	4,000000000000000E+000
1,9686797E-001	1,414140351395574E-002	4,000000000000000E+000
2,0092244E-001	1,443501130282432E-002	4,000000000000000E+000
2,0483620E-001	1,455264592586902E-002	4,000000000000000E+000
2,0889701E-001	1,483144099256611E-002	4,000000000000000E+000
2,1287827E-001	1,503977928696261E-002	4,000000000000000E+000
2,1686968E-001	1,523994618898239E-002	4,000000000000000E+000
2,2089168E-001	1,510219415564887E-002	4,000000000000000E+000
2,2491686E-001	1,507280112940258E-002	4,000000000000000E+000
2,2889939E-001	1,545479948557235E-002	4,000000000000000E+000
2,3291503E-001	1,578925956576616E-002	4,000000000000000E+000
2,3697393E-001	1,579284639665274E-002	4,000000000000000E+000
2,4081135E-001	1,621917880644713E-002	4,000000000000000E+000
2,4488233E-001	1,608634881546700E-002	4,000000000000000E+000
2,4894376E-001	1,665142939394489E-002	4,000000000000000E+000
2,5285625E-001	1,656615916896649E-002	4,000000000000000E+000
2,5685215E-001	1,664964624263432E-002	4,000000000000000E+000
2,6089644E-001	1,702366634647967E-002	4,000000000000000E+000
2,6486370E-001	1,745659869678398E-002	4,000000000000000E+000
2,6885128E-001	1,746574476662022E-002	4,000000000000000E+000
2,7287900E-001	1,797460921879976E-002	4,000000000000000E+000
2,7683225E-001	1,816431436345739E-002	4,000000000000000E+000
2,8084853E-001	1,834196431712677E-002	4,000000000000000E+000
2,8494436E-001	1,846736660506090E-002	4,000000000000000E+000
2,8886509E-001	1,842729931461996E-002	4,000000000000000E+000
2,9288837E-001	1,890721540427577E-002	4,000000000000000E+000
2,9689765E-001	1,943019273809721E-002	4,000000000000000E+000
3,0088654E-001	1,968549383697487E-002	4,000000000000000E+000
3,0486524E-001	2,004901005663373E-002	4,000000000000000E+000
3,0887511E-001	2,038387330612745E-002	4,000000000000000E+000
3,1287101E-001	2,088337826789938E-002	4,000000000000000E+000
3,1689110E-001	2,069946842117742E-002	4,000000000000000E+000
3,2084179E-001	2,122100239769978E-002	4,000000000000000E+000
3,2492045E-001	2,146904685844983E-002	4,000000000000000E+000
3,2889405E-001	2,204828369164413E-002	4,000000000000000E+000
3,3278555E-001	2,210299596918058E-002	4,000000000000000E+000
3,3690110E-001	2,273785511182118E-002	4,000000000000000E+000
3,4090272E-001	2,300828782050907E-002	4,000000000000000E+000
3,4486547E-001	2,339707769666965E-002	4,000000000000000E+000
3,4886202E-001	2,356617616339152E-002	4,000000000000000E+000
3,5289803E-001	2,373086025060428E-002	4,000000000000000E+000
3,5683218E-001	2,433895937671582E-002	4,000000000000000E+000
3,6086559E-001	2,492352350818688E-002	4,000000000000000E+000
3,6340022E-001	2,447830513119698E-002	4,000000000000000E+000
3,5970020E-001	-7,072387279587625E-004	4,000000000000000E+000
3,5568139E-001	-4,221773784896250E-003	4,000000000000000E+000
3,5176057E-001	-6,094139507573948E-003	4,000000000000000E+000
3,4776857E-001	-7,212609754363580E-003	4,000000000000000E+000
3,4370774E-001	-8,294790807849492E-003	4,000000000000000E+000
3,3973792E-001	-8,724814967899869E-003	4,000000000000000E+000
3,3572611E-001	-9,566717688418651E-003	4,000000000000000E+000
3,3170226E-001	-9,949268004371917E-003	4,000000000000000E+000
3,2774198E-001	-1,082737730794177E-002	4,000000000000000E+000
3,2371172E-001	-1,106582859016873E-002	4,000000000000000E+000
3,1966496E-001	-1,157522439292127E-002	4,000000000000000E+000
3,1573904E-001	-1,156737230182137E-002	4,000000000000000E+000
3,1173488E-001	-1,210068407308429E-002	4,000000000000000E+000
3,0773771E-001	-1,207243784726109E-002	4,000000000000000E+000
3,0373991E-001	-1,273494992104435E-002	4,000000000000000E+000
2,9973447E-001	-1,288961743315062E-002	4,000000000000000E+000
2,9576340E-001	-1,322352560321935E-002	4,000000000000000E+000
2,9175287E-001	-1,310109588521302E-002	4,000000000000000E+000
2,8773853E-001	-1,353534265496520E-002	4,000000000000000E+000
2,8374007E-001	-1,344510670387533E-002	4,000000000000000E+000
2,7975374E-001	-1,404709428012810E-002	4,000000000000000E+000
2,7572286E-001	-1,366683518535861E-002	4,000000000000000E+000
2,7173650E-001	-1,428607610578181E-002	4,000000000000000E+000
2,6775908E-001	-1,403049749739390E-002	4,000000000000000E+000
2,6370078E-001	-1,455725234215294E-002	4,000000000000000E+000
2,5976917E-001	-1,455926898609805E-002	4,000000000000000E+000
2,5575104E-001	-1,457911123725356E-002	4,000000000000000E+000
2,5174239E-001	-1,453208290040495E-002	4,000000000000000E+000
2,4774143E-001	-1,488511320846253E-002	4,000000000000000E+000
2,4375762E-001	-1,472087490425718E-002	4,000000000000000E+000
2,3971465E-001	-1,515399741607924E-002	4,000000000000000E+000
2,3573337E-001	-1,518727414137777E-002	4,000000000000000E+000
2,3176996E-001	-1,542846352931518E-002	4,000000000000000E+000
2,2771744E-001	-1,510641827044309E-002	4,000000000000000E+000
2,2379346E-001	-1,528016281602805E-002	4,000000000000000E+000
2,1972373E-001	-1,543353634212202E-002	4,000000000000000E+000
2,1568520E-001	-1,583442258294473E-002	4,000000000000000E+000
2,1174279E-001	-1,539047597446666E-002	4,000000000000000E+000
2,0771378E-001	-1,588053824743836E-002	4,000000000000000E+000
2,0372491E-001	-1,588860210673981E-002	4,000000000000000E+000
1,9976021E-001	-1,608490731523485E-002	4,000000000000000E+000
1,9574456E-001	-1,594649669532372E-002	4,000000000000000E+000
1,9173406E-001	-1,630943855634540E-002	4,000000000000000E+000
1,8774197E-001	-1,598645721593733E-002	4,000000000000000E+000
1,8373846E-001	-1,639341428490299E-002	4,000000000000000E+000
1,7969355E-001	-1,638876613057311E-002	4,000000000000000E+000
1,7575748E-001	-1,674869308869048E-002	4,000000000000000E+000
1,7176859E-001	-1,665905134602028E-002	4,000000000000000E+000
1,6774534E-001	-1,677937996112938E-002	4,000000000000000E+000
1,6375709E-001	-1,665221708729704E-002	4,000000000000000E+000
1,5974084E-001	-1,681484268313696E-002	4,000000000000000E+000
1,5569784E-001	-1,683593682901116E-002	4,000000000000000E+000
1,5175860E-001	-1,708037451765754E-002	4,000000000000000E+000
1,4776143E-001	-1,678665954362563E-002	4,000000000000000E+000
1,4372924E-001	-1,748433665125038E-002	4,000000000000000E+000
1,3976774E-001	-1,724257490629193E-002	4,000000000000000E+000
1,3571647E-001	-1,766145731695962E-002	4,000000000000000E+000
1,3177215E-001	-1,751926918780859E-002	4,000000000000000E+000
1,2778324E-001	-1,803509466177877E-002	4,000000000000000E+000
1,2374089E-001	-1,765912196630474E-002	4,000000000000000E+000
1,1969217E-001	-1,785903590377218E-002	4,000000000000000E+000
1,1577840E-001	-1,776994526941655E-002	4,000000000000000E+000
1,1171184E-001	-1,825310903162364E-002	4,000000000000000E+000
1,0768478E-001	-1,847611175314038E-002	4,000000000000000E+000
1,0376972E-001	-1,854824648762583E-002	4,000000000000000E+000
9,9763639E-002	-1,838759332980161E-002	4,000000000000000E+000
9,5776670E-002	-1,845940922782272E-002	4,000000000000000E+000
9,1787778E-002	-1,850153481051772E-002	4,000000000000000E+000
8,7770246E-002	-1,887752800879144E-002	4,000000000000000E+000
8,3760984E-002	-1,851844939434763E-002	4,000000000000000E+000
7,9775915E-002	-1,900027823515599E-002	4,000000000000000E+000
7,5753927E-002	-1,887031272138597E-002	4,000000000000000E+000
7,1707763E-002	-1,947520845836451E-002	4,000000000000000E+000
6,7811161E-002	-1,945691412935655E-002	4,000000000000000E+000
6,3810423E-002	-1,971360873134334E-002	4,000000000000000E+000
6,3577227E-002	5,742508925717040E-003	4,000000000000000E+000
6,7889445E-002	6,878763727157414E-003	4,000000000000000E+000
7,1903162E-002	6,624819272595547E-003	4,000000000000000E+000
7,5869136E-002	7,090624104118148E-003	4,000000000000000E+000
7,9943314E-002	7,654984163915898E-003	4,000000000000000E+000
8,3925843E-002	7,676142736757668E-003	4,000000000000000E+000
8,7905809E-002	8,600918658339653E-003	4,000000000000000E+000
9,1900438E-002	8,722415476101253E-003	4,000000000000000E+000
9,5928147E-002	9,303498157229723E-003	4,000000000000000E+000
9,9854663E-002	9,511644752031603E-003	4,000000000000000E+000
1,0388937E-001	9,786832035873265E-003	4,000000000000000E+000
1,0786107E-001	1,005522921574692E-002	4,000000000000000E+000
1,1185633E-001	1,032434642850905E-002	4,000000000000000E+000
1,1587895E-001	1,035656153192879E-002	4,000000000000000E+000
1,1988503E-001	1,088119467591847E-002	4,000000000000000E+000
1,2385165E-001	1,097826426763884E-002	4,000000000000000E+000
1,2789336E-001	1,143980418043307E-002	4,000000000000000E+000
1,3189435E-001	1,122898329692060E-002	4,000000000000000E+000
1,3477896E-001	1,122359279543161E-002	4,000000000000000E+000