File: fig_si_ecsa/CeO2/50.txt
EC-Lab ASCII FILE
Nb header lines : 59

Cyclic Voltammetry

Run on channel : 1 (SN 10336)
User :
CE vs. WE compliance from -10 V to 10 V
Electrode connection : standard
Potential control : Ewe
Ewe ctrl range : min = -2,50 V, max = 2,50 V
Safety Limits :
	Do not start on E overload
Acquisition started on : 10/13/2024 13:58:28.596
Technique started on : 10/13/2024 14:04:39.619
Loaded Setting File :  C:\EC-lab data\Neethu\Methods\CV_ECSA.mps
Saved on :
	File : CV_ECSA_03_CV_C01.mpr
	Directory : C:\EC-lab data\Neethu\2024_10_13_Ni90Fe10_CeO2\CV_ECSA\
	Host : 10.54.33.65
Device : VMP3 (SN 0498)
Address : USB
EC-Lab for windows v11.52 (software)
Internet server v11.52 (firmware)
Command interpretor v11.50 (firmware)
Electrode material :
Initial state :
Electrolyte :
Comments :
Electrode surface area : 0,001 cm²
Characteristic mass : 0,001 g
Volume (V) : 0,001 cm³
Thickness (t) : 0,000 cm
Diameter (d) : 0,000 cm
Cell constant (k=t/A) : 0,000 cm-1
Cycle Definition : Charge/Discharge alternance
Ei (V)              0,064
vs.                 Ref
dE/dt               50,000
dE/dt unit          mV/s
E1 (V)              0,364
vs.                 Ref
Step percent        50
N                   10
E range min (V)     -2,500
E range max (V)     2,500
I Range             Auto
I Range min         Unset
I Range max         Unset
I Range init        Unset
Bandwidth           5
E2 (V)              0,064
vs.                 Ref
nc cycles           3
Reverse Scan        1
Ef (V)              0,070
vs.                 Eoc

Ewe/V	<I>/mA	cycle number
6,4300291E-002	1,394405961036682E-002	1,000000000000000E+000
6,8227425E-002	-1,322475575256651E-003	1,000000000000000E+000
7,2242625E-002	-1,506421101061680E-004	1,000000000000000E+000
7,7746145E-002	7,305307324006437E-004	1,000000000000000E+000
8,1766643E-002	1,057462650856501E-003	1,000000000000000E+000
8,5730910E-002	1,384926160527468E-003	1,000000000000000E+000
8,9724906E-002	1,585534515369450E-003	1,000000000000000E+000
9,3735859E-002	1,793747390264694E-003	1,000000000000000E+000
9,7736202E-002	1,937650906863077E-003	1,000000000000000E+000
1,0174397E-001	2,100522664881692E-003	1,000000000000000E+000
1,0572098E-001	2,223109602709892E-003	1,000000000000000E+000
1,0969163E-001	2,326451684995050E-003	1,000000000000000E+000
1,1373547E-001	2,430177369509096E-003	1,000000000000000E+000
1,1769868E-001	2,572508107833629E-003	1,000000000000000E+000
1,2171283E-001	2,626875427166756E-003	1,000000000000000E+000
1,2566224E-001	2,734081834609648E-003	1,000000000000000E+000
1,2974958E-001	2,793281710182775E-003	1,000000000000000E+000
1,3377856E-001	2,900268508205447E-003	1,000000000000000E+000
1,3771634E-001	2,951619080300186E-003	1,000000000000000E+000
1,4172408E-001	3,040212592572471E-003	1,000000000000000E+000
1,4577535E-001	3,081257901309680E-003	1,000000000000000E+000
1,4971736E-001	3,184956999070388E-003	1,000000000000000E+000
1,5372832E-001	3,218358146518273E-003	1,000000000000000E+000
1,5772653E-001	3,301631989314859E-003	1,000000000000000E+000
1,6169930E-001	3,335412214760761E-003	1,000000000000000E+000
1,6574103E-001	3,419623315898616E-003	1,000000000000000E+000
1,6970317E-001	3,444410778886076E-003	1,000000000000000E+000
1,7368974E-001	3,486744486104351E-003	1,000000000000000E+000
1,7767523E-001	3,551129735569706E-003	1,000000000000000E+000
1,8172544E-001	3,615565401762250E-003	1,000000000000000E+000
1,8571579E-001	3,676002226388350E-003	1,000000000000000E+000
1,8968262E-001	3,732399364404660E-003	1,000000000000000E+000
1,9371480E-001	3,761271077665794E-003	1,000000000000000E+000
1,9771408E-001	3,842926721214703E-003	1,000000000000000E+000
2,0172928E-001	3,875002882826564E-003	1,000000000000000E+000
2,0570841E-001	3,926748506475855E-003	1,000000000000000E+000
2,0972678E-001	3,955618418937469E-003	1,000000000000000E+000
2,1373880E-001	4,023679564448282E-003	1,000000000000000E+000
2,1771158E-001	4,066421121226300E-003	1,000000000000000E+000
2,2173101E-001	4,135170139407923E-003	1,000000000000000E+000
2,2572286E-001	4,172732462191367E-003	1,000000000000000E+000
2,2972108E-001	4,237060095167389E-003	1,000000000000000E+000
2,3372570E-001	4,268248018181320E-003	1,000000000000000E+000
2,3771331E-001	4,309839940106037E-003	1,000000000000000E+000
2,4168710E-001	4,384062235961517E-003	1,000000000000000E+000
2,4573627E-001	4,455461344251593E-003	1,000000000000000E+000
2,4973555E-001	4,495054778089980E-003	1,000000000000000E+000
2,5371891E-001	4,570432432956312E-003	1,000000000000000E+000
2,5771818E-001	4,608303245024412E-003	1,000000000000000E+000
2,6173875E-001	4,687566945600977E-003	1,000000000000000E+000
2,6570508E-001	4,735763316906130E-003	1,000000000000000E+000
2,6972985E-001	4,817776782955571E-003	1,000000000000000E+000
2,7370048E-001	4,856573531772788E-003	1,000000000000000E+000
2,7769765E-001	4,950732659280130E-003	1,000000000000000E+000
2,8170964E-001	4,988968819816380E-003	1,000000000000000E+000
2,8572276E-001	5,087188143887852E-003	1,000000000000000E+000
2,8969336E-001	5,131430279612284E-003	1,000000000000000E+000
2,9371816E-001	5,225219845467824E-003	1,000000000000000E+000
2,9773119E-001	5,273743851931759E-003	1,000000000000000E+000
3,0169865E-001	5,331651904270998E-003	1,000000000000000E+000
3,0568737E-001	5,413520921946552E-003	1,000000000000000E+000
3,0971527E-001	5,526932113247743E-003	1,000000000000000E+000
3,1372622E-001	5,594346520714083E-003	1,000000000000000E+000
3,1770962E-001	5,667813014750007E-003	1,000000000000000E+000
3,2162720E-001	5,731848181312699E-003	1,000000000000000E+000
3,2571450E-001	5,825991117389004E-003	1,000000000000000E+000
3,2965550E-001	5,887249585713218E-003	1,000000000000000E+000
3,3372369E-001	6,017547438306015E-003	1,000000000000000E+000
3,3769962E-001	6,058643455617130E-003	1,000000000000000E+000
3,4169471E-001	6,172306237810204E-003	1,000000000000000E+000
3,4570247E-001	6,215392413853105E-003	1,000000000000000E+000
3,4971553E-001	6,349192599979403E-003	1,000000000000000E+000
3,5370421E-001	6,368746949899824E-003	1,000000000000000E+000
3,5771304E-001	6,499668907862452E-003	1,000000000000000E+000
3,6169326E-001	6,569922040297507E-003	1,000000000000000E+000
3,6274138E-001	1,789304813971486E-003	1,000000000000000E+000
3,5871127E-001	6,574134435292478E-004	1,000000000000000E+000
3,5473004E-001	5,286161447652196E-005	1,000000000000000E+000
3,5072124E-001	-4,050232992085503E-004	1,000000000000000E+000
3,4669116E-001	-6,821629455468284E-004	1,000000000000000E+000
3,4272158E-001	-9,920288820366198E-004	1,000000000000000E+000
3,3869261E-001	-1,172296694777389E-003	1,000000000000000E+000
3,3469540E-001	-1,417308696545659E-003	1,000000000000000E+000
3,3069932E-001	-1,561020347960743E-003	1,000000000000000E+000
3,2669261E-001	-1,696163700823185E-003	1,000000000000000E+000
3,2265830E-001	-1,840647439368893E-003	1,000000000000000E+000
3,1868130E-001	-2,008273939787210E-003	1,000000000000000E+000
3,1470221E-001	-2,087054082747066E-003	1,000000000000000E+000
3,1070390E-001	-2,234460281368717E-003	1,000000000000000E+000
3,0672908E-001	-2,289212549334882E-003	1,000000000000000E+000
3,0269158E-001	-2,428421519046718E-003	1,000000000000000E+000
2,9875168E-001	-2,458890299951430E-003	1,000000000000000E+000
2,9470471E-001	-2,567689135604369E-003	1,000000000000000E+000
2,9067248E-001	-2,611212949179580E-003	1,000000000000000E+000
2,8671566E-001	-2,720690810949435E-003	1,000000000000000E+000
2,8269729E-001	-2,743679662873755E-003	1,000000000000000E+000
2,7875000E-001	-2,841771857169474E-003	1,000000000000000E+000
2,7473798E-001	-2,872023920847108E-003	1,000000000000000E+000
2,7072704E-001	-2,953414362208489E-003	1,000000000000000E+000
2,6674256E-001	-2,974868885050642E-003	1,000000000000000E+000
2,6276985E-001	-2,999768687004682E-003	1,000000000000000E+000
2,5875887E-001	-3,052798244526547E-003	1,000000000000000E+000
2,5475743E-001	-3,143937478145925E-003	1,000000000000000E+000
2,5070089E-001	-3,149225291660201E-003	1,000000000000000E+000
2,4669418E-001	-3,223999664138923E-003	1,000000000000000E+000
2,4273205E-001	-3,239496186829959E-003	1,000000000000000E+000
2,3874971E-001	-3,291639870440115E-003	1,000000000000000E+000
2,3475786E-001	-3,307392896507132E-003	1,000000000000000E+000
2,3071191E-001	-3,405820194934163E-003	1,000000000000000E+000
2,2672321E-001	-3,375419576413054E-003	1,000000000000000E+000
2,2274302E-001	-3,463409957678076E-003	1,000000000000000E+000
2,1872252E-001	-3,448276815106496E-003	1,000000000000000E+000
2,1469674E-001	-3,512824753973576E-003	1,000000000000000E+000
2,1071334E-001	-3,519679574714656E-003	1,000000000000000E+000
2,0669496E-001	-3,575219660382975E-003	1,000000000000000E+000
2,0271797E-001	-3,573518206596626E-003	1,000000000000000E+000
1,9874625E-001	-3,601656205218101E-003	1,000000000000000E+000
1,9469711E-001	-3,642758895997154E-003	1,000000000000000E+000
1,9073284E-001	-3,717080650757348E-003	1,000000000000000E+000
1,8674099E-001	-3,702195921505329E-003	1,000000000000000E+000
1,8268760E-001	-3,780434990605687E-003	1,000000000000000E+000
1,7873497E-001	-3,753291863581074E-003	1,000000000000000E+000
1,7472616E-001	-3,833318576046922E-003	1,000000000000000E+000
1,7069080E-001	-3,847870883772773E-003	1,000000000000000E+000
1,6669574E-001	-3,888549280519427E-003	1,000000000000000E+000
1,6271661E-001	-3,901202903661105E-003	1,000000000000000E+000
1,5872160E-001	-3,984080795918166E-003	1,000000000000000E+000
1,5473078E-001	-3,962036558934595E-003	1,000000000000000E+000
1,5069968E-001	-4,023191555865582E-003	1,000000000000000E+000
1,4675133E-001	-4,035341057816465E-003	1,000000000000000E+000
1,4270110E-001	-4,092619608046424E-003	1,000000000000000E+000
1,3874637E-001	-4,093052021441210E-003	1,000000000000000E+000
1,3476619E-001	-4,101873476530356E-003	1,000000000000000E+000
1,3073827E-001	-4,141158023331717E-003	1,000000000000000E+000
1,2671138E-001	-4,205168416471380E-003	1,000000000000000E+000
1,2271317E-001	-4,218565855100873E-003	1,000000000000000E+000
1,1869478E-001	-4,272935158143018E-003	1,000000000000000E+000
1,1473476E-001	-4,280447998705000E-003	1,000000000000000E+000
1,1069833E-001	-4,358379251950983E-003	1,000000000000000E+000
1,0672665E-001	-4,349316409287735E-003	1,000000000000000E+000
1,0271038E-001	-4,368691391088461E-003	1,000000000000000E+000
9,8700494E-002	-4,401252107022118E-003	1,000000000000000E+000
9,4805166E-002	-4,494715118602853E-003	1,000000000000000E+000
9,0753905E-002	-4,479688103149053E-003	1,000000000000000E+000
8,6727031E-002	-4,534702781610455E-003	1,000000000000000E+000
8,2748957E-002	-4,554553600529379E-003	1,000000000000000E+000
7,8736953E-002	-4,627066205203936E-003	1,000000000000000E+000
7,4744031E-002	-4,627520514380506E-003	1,000000000000000E+000
7,0739433E-002	-4,638634673837152E-003	1,000000000000000E+000
6,6763490E-002	-4,674325853961311E-003	1,000000000000000E+000
6,3192800E-002	-4,759861622005701E-003	1,000000000000000E+000
6,5937109E-002	-7,527490149117312E-005	2,000000000000000E+000
6,9913067E-002	2,477328041708112E-004	2,000000000000000E+000
7,3922962E-002	5,525522913861392E-004	2,000000000000000E+000
7,7958308E-002	7,908943846612411E-004	2,000000000000000E+000
8,1941672E-002	1,000112609795503E-003	2,000000000000000E+000
8,5935660E-002	1,155187051558147E-003	2,000000000000000E+000
8,9941315E-002	1,345788116345324E-003	2,000000000000000E+000
9,3954392E-002	1,492026301194629E-003	2,000000000000000E+000
9,7911246E-002	1,612296482562670E-003	2,000000000000000E+000
1,0193174E-001	1,734298034231571E-003	2,000000000000000E+000
1,0596922E-001	1,858114919842696E-003	2,000000000000000E+000
1,0993138E-001	1,949226666915327E-003	2,000000000000000E+000
1,1394869E-001	2,078067048286267E-003	2,000000000000000E+000
1,1795752E-001	2,166396051001770E-003	2,000000000000000E+000
1,2189528E-001	2,224470535414493E-003	2,000000000000000E+000
1,2592003E-001	2,317840655046498E-003	2,000000000000000E+000
1,2993629E-001	2,447895215381222E-003	2,000000000000000E+000
1,3395995E-001	2,513511250476275E-003	2,000000000000000E+000
1,3791469E-001	2,598817239737004E-003	2,000000000000000E+000
1,4192353E-001	2,646265484751602E-003	2,000000000000000E+000
1,4597799E-001	2,738004244949688E-003	2,000000000000000E+000
1,4991997E-001	2,790820690279354E-003	2,000000000000000E+000
1,5392138E-001	2,851255247151133E-003	2,000000000000000E+000
1,5790793E-001	2,922952269727830E-003	2,000000000000000E+000
1,6182871E-001	2,969619817425470E-003	2,000000000000000E+000
1,6587469E-001	3,033256086281549E-003	2,000000000000000E+000
1,6987716E-001	3,116624460340573E-003	2,000000000000000E+000
1,7387325E-001	3,168368466301928E-003	2,000000000000000E+000
1,7789587E-001	3,237970832439405E-003	2,000000000000000E+000
1,8191850E-001	3,286438769767621E-003	2,000000000000000E+000
1,8591203E-001	3,342859313746109E-003	2,000000000000000E+000
1,8988842E-001	3,403423891642082E-003	2,000000000000000E+000
1,9394182E-001	3,463165812516118E-003	2,000000000000000E+000
1,9791245E-001	3,513195243309994E-003	2,000000000000000E+000
2,0190853E-001	3,581437662433025E-003	2,000000000000000E+000
2,0592377E-001	3,622633274264639E-003	2,000000000000000E+000
2,0990609E-001	3,686626842358640E-003	2,000000000000000E+000
2,1388094E-001	3,708860465849291E-003	2,000000000000000E+000
2,1787916E-001	3,788278982432919E-003	2,000000000000000E+000
2,2192197E-001	3,843276826349523E-003	2,000000000000000E+000
2,2594036E-001	3,891386377896808E-003	2,000000000000000E+000
2,2990355E-001	3,943581899673337E-003	2,000000000000000E+000
2,3391558E-001	4,025264181513621E-003	2,000000000000000E+000
2,3789577E-001	4,064953242858688E-003	2,000000000000000E+000
2,4190672E-001	4,145893335791920E-003	2,000000000000000E+000
2,4592507E-001	4,186236880438336E-003	2,000000000000000E+000
2,4991591E-001	4,245267865674890E-003	2,000000000000000E+000
2,5391197E-001	4,312356203526088E-003	2,000000000000000E+000
2,5790384E-001	4,375221621659067E-003	2,000000000000000E+000
2,6193815E-001	4,446606673203284E-003	2,000000000000000E+000
2,6590985E-001	4,528342451521908E-003	2,000000000000000E+000
2,6990488E-001	4,570779665906813E-003	2,000000000000000E+000
2,7389249E-001	4,661742012912223E-003	2,000000000000000E+000
2,7788541E-001	4,705519037896837E-003	2,000000000000000E+000
2,8187728E-001	4,813220231476928E-003	2,000000000000000E+000
2,8592113E-001	4,859475870438890E-003	2,000000000000000E+000
2,8990451E-001	4,923350923895176E-003	2,000000000000000E+000
2,9392391E-001	5,004428345273482E-003	2,000000000000000E+000
2,9792109E-001	5,100497222075451E-003	2,000000000000000E+000
3,0189279E-001	5,138161195241596E-003	2,000000000000000E+000
3,0590057E-001	5,239629568273424E-003	2,000000000000000E+000
3,0992478E-001	5,301294113124133E-003	2,000000000000000E+000
3,1387153E-001	5,379924430194999E-003	2,000000000000000E+000
3,1791860E-001	5,455921012374687E-003	2,000000000000000E+000
3,2191044E-001	5,556345002939165E-003	2,000000000000000E+000
3,2592353E-001	5,631248919396774E-003	2,000000000000000E+000
3,2985705E-001	5,727488655086051E-003	2,000000000000000E+000
3,3388704E-001	5,793700177390670E-003	2,000000000000000E+000
3,3790335E-001	5,898014810857902E-003	2,000000000000000E+000
3,4186655E-001	5,959737480427267E-003	2,000000000000000E+000
3,4584036E-001	6,037999282044543E-003	2,000000000000000E+000
3,4993091E-001	6,144684656545808E-003	2,000000000000000E+000
3,5391957E-001	6,221156893136348E-003	2,000000000000000E+000
3,5787535E-001	6,293578379781034E-003	2,000000000000000E+000
3,6187574E-001	6,428111866019503E-003	2,000000000000000E+000
3,6170065E-001	1,180167293695274E-003	2,000000000000000E+000
3,5772577E-001	3,174050363491514E-004	2,000000000000000E+000
3,5370108E-001	-2,460696279816446E-004	2,000000000000000E+000
3,4971976E-001	-6,163735001791775E-004	2,000000000000000E+000
3,4570140E-001	-9,301540260114212E-004	2,000000000000000E+000
3,4168512E-001	-1,175861094553612E-003	2,000000000000000E+000
3,3772194E-001	-1,407267904141913E-003	2,000000000000000E+000
3,3372799E-001	-1,570878105465252E-003	2,000000000000000E+000
3,2968095E-001	-1,750894603598376E-003	2,000000000000000E+000
3,2568800E-001	-1,893133312276203E-003	2,000000000000000E+000
3,2170996E-001	-2,034755644166980E-003	2,000000000000000E+000
3,1765229E-001	-2,141693210635121E-003	2,000000000000000E+000
3,1373155E-001	-2,245694826342515E-003	2,000000000000000E+000
3,0968031E-001	-2,351669173044180E-003	2,000000000000000E+000
3,0572551E-001	-2,453225797176446E-003	2,000000000000000E+000
3,0170289E-001	-2,533105914052494E-003	2,000000000000000E+000
2,9773656E-001	-2,633652643352329E-003	2,000000000000000E+000
2,9375312E-001	-2,694017109711747E-003	2,000000000000000E+000
2,8974646E-001	-2,766095542837209E-003	2,000000000000000E+000
2,8576198E-001	-2,831605578750084E-003	2,000000000000000E+000
2,8172132E-001	-2,920277659237997E-003	2,000000000000000E+000
2,7773267E-001	-2,948054722259640E-003	2,000000000000000E+000
2,7371746E-001	-3,002943279675992E-003	2,000000000000000E+000
2,6968956E-001	-3,057353998075191E-003	2,000000000000000E+000
2,6569873E-001	-3,113365332562047E-003	2,000000000000000E+000
2,6168564E-001	-3,143402616034213E-003	2,000000000000000E+000
2,5772992E-001	-3,203460213828495E-003	2,000000000000000E+000
2,5372210E-001	-3,241921784744277E-003	2,000000000000000E+000
2,4973130E-001	-3,260759010218960E-003	2,000000000000000E+000
2,4574472E-001	-3,310696553146246E-003	2,000000000000000E+000
2,4171895E-001	-3,360918651095640E-003	2,000000000000000E+000
2,3771437E-001	-3,395558508499472E-003	2,000000000000000E+000
2,3372672E-001	-3,430105337126097E-003	2,000000000000000E+000
2,2973381E-001	-3,464187118475411E-003	2,000000000000000E+000
2,2569744E-001	-3,498063880518496E-003	2,000000000000000E+000
2,2174056E-001	-3,524925842106716E-003	2,000000000000000E+000
2,1772747E-001	-3,557604255749742E-003	2,000000000000000E+000
2,1369107E-001	-3,603268074988973E-003	2,000000000000000E+000
2,0969179E-001	-3,644098617062094E-003	2,000000000000000E+000
2,0574234E-001	-3,660238946597213E-003	2,000000000000000E+000
2,0166668E-001	-3,699719141271381E-003	2,000000000000000E+000
1,9772045E-001	-3,715928461032390E-003	2,000000000000000E+000
1,9374238E-001	-3,758572605066637E-003	2,000000000000000E+000
1,8972398E-001	-3,775854320742324E-003	2,000000000000000E+000
1,8570605E-001	-3,810777368185140E-003	2,000000000000000E+000
1,8173923E-001	-3,848011521565956E-003	2,000000000000000E+000
1,7770280E-001	-3,886281920737634E-003	2,000000000000000E+000
1,7370777E-001	-3,908226651118507E-003	2,000000000000000E+000
1,6967879E-001	-3,945858722242207E-003	2,000000000000000E+000
1,6568798E-001	-3,977074924478061E-003	2,000000000000000E+000
1,6171415E-001	-4,002024128163223E-003	2,000000000000000E+000
1,5770000E-001	-4,032980822861035E-003	2,000000000000000E+000
1,5375589E-001	-4,049694531406391E-003	2,000000000000000E+000
1,4973009E-001	-4,091196115849821E-003	2,000000000000000E+000
1,4578065E-001	-4,129528673527394E-003	2,000000000000000E+000
1,4169969E-001	-4,147922035271104E-003	2,000000000000000E+000
1,3771527E-001	-4,190452839086159E-003	2,000000000000000E+000
1,3373402E-001	-4,193027642435898E-003	2,000000000000000E+000
1,2978140E-001	-4,250931196616452E-003	2,000000000000000E+000
1,2571953E-001	-4,270957273143309E-003	2,000000000000000E+000
1,2173403E-001	-4,287288473682947E-003	2,000000000000000E+000
1,1772308E-001	-4,342747047808682E-003	2,000000000000000E+000
1,1373334E-001	-4,375043640417658E-003	2,000000000000000E+000
1,0976271E-001	-4,399738116464699E-003	2,000000000000000E+000
1,0571886E-001	-4,453831455773764E-003	2,000000000000000E+000
1,0170897E-001	-4,463873179904307E-003	2,000000000000000E+000
9,7712867E-002	-4,504161861000774E-003	2,000000000000000E+000
9,3775108E-002	-4,537232957065679E-003	2,000000000000000E+000
8,9749306E-002	-4,580408172639855E-003	2,000000000000000E+000
8,5776538E-002	-4,589652303871428E-003	2,000000000000000E+000
8,1704050E-002	-4,661122222993662E-003	2,000000000000000E+000
7,7714324E-002	-4,674079891426812E-003	2,000000000000000E+000
7,3718213E-002	-4,718168097800422E-003	2,000000000000000E+000
6,9745444E-002	-4,732666500785833E-003	2,000000000000000E+000
6,5707974E-002	-4,773799224898914E-003	2,000000000000000E+000
6,3192800E-002	-4,134015645831823E-003	3,000000000000000E+000
6,6925794E-002	-8,278751357061569E-005	3,000000000000000E+000
7,0889018E-002	2,507268986156790E-004	3,000000000000000E+000
7,4923307E-002	5,282352756997488E-004	3,000000000000000E+000
7,8952290E-002	8,193762489301900E-004	3,000000000000000E+000
8,2942039E-002	9,622099231718396E-004	3,000000000000000E+000
8,6951926E-002	1,189864864803294E-003	3,000000000000000E+000
9,0937428E-002	1,304832205379275E-003	3,000000000000000E+000
9,4956867E-002	1,489923483152078E-003	3,000000000000000E+000
9,8938107E-002	1,564271644282499E-003	3,000000000000000E+000
1,0292043E-001	1,691709616958784E-003	3,000000000000000E+000
1,0691122E-001	1,813190388525579E-003	3,000000000000000E+000
1,1091369E-001	1,960093230385006E-003	3,000000000000000E+000
1,1493101E-001	2,009279056437666E-003	3,000000000000000E+000
1,1893453E-001	2,154106647948441E-003	3,000000000000000E+000
1,2287972E-001	2,204640067349022E-003	3,000000000000000E+000
1,2691084E-001	2,340535211058328E-003	3,000000000000000E+000
1,3092390E-001	2,371438845026816E-003	3,000000000000000E+000
1,3496563E-001	2,435929531808739E-003	3,000000000000000E+000
1,3890763E-001	2,524021593975103E-003	3,000000000000000E+000
1,4288676E-001	2,644247511044445E-003	3,000000000000000E+000
1,4694650E-001	2,674863293577814E-003	3,000000000000000E+000
1,5093304E-001	2,800231833235668E-003	3,000000000000000E+000
1,5491113E-001	2,821988057702486E-003	3,000000000000000E+000
1,5894435E-001	2,949571951022431E-003	3,000000000000000E+000
1,6288106E-001	2,931118409833296E-003	3,000000000000000E+000
1,6690686E-001	3,036953073104899E-003	3,000000000000000E+000
1,7089872E-001	3,068137229800231E-003	3,000000000000000E+000
1,7485771E-001	3,166341002320744E-003	3,000000000000000E+000
1,7889303E-001	3,190889424836821E-003	3,000000000000000E+000
1,8289128E-001	3,297310583851271E-003	3,000000000000000E+000
1,8691921E-001	3,298669772751364E-003	3,000000000000000E+000
1,9092165E-001	3,414867813060288E-003	3,000000000000000E+000
1,9491352E-001	3,410772870564781E-003	3,000000000000000E+000
1,9885552E-001	3,460055038077472E-003	3,000000000000000E+000
2,0287390E-001	3,530564717342112E-003	3,000000000000000E+000
2,0694424E-001	3,618427633530999E-003	3,000000000000000E+000
2,1090961E-001	3,632765158423965E-003	3,000000000000000E+000
2,1490361E-001	3,738994140197363E-003	3,000000000000000E+000
2,1890603E-001	3,748719976809103E-003	3,000000000000000E+000
2,2295518E-001	3,854795919323813E-003	3,000000000000000E+000
2,2695343E-001	3,864501565355262E-003	3,000000000000000E+000
2,3091877E-001	4,003152862019813E-003	3,000000000000000E+000
2,3491165E-001	3,977489078048776E-003	3,000000000000000E+000
2,3888656E-001	4,085716270815800E-003	3,000000000000000E+000
2,4290600E-001	4,110115579048109E-003	3,000000000000000E+000
2,4692862E-001	4,205927087039318E-003	3,000000000000000E+000
2,5091410E-001	4,235458941871509E-003	3,000000000000000E+000
2,5490385E-001	4,339988167177775E-003	3,000000000000000E+000
2,5890633E-001	4,355579423039088E-003	3,000000000000000E+000
2,6292360E-001	4,407571049038481E-003	3,000000000000000E+000
2,6685613E-001	4,494767520858062E-003	3,000000000000000E+000
2,7091372E-001	4,609012063156122E-003	3,000000000000000E+000
2,7492574E-001	4,633690970270735E-003	3,000000000000000E+000
2,7889532E-001	4,740195064692268E-003	3,000000000000000E+000
2,8291899E-001	4,769222504465820E-003	3,000000000000000E+000
2,8690344E-001	4,894534686172854E-003	3,000000000000000E+000
2,9089424E-001	4,906047765770305E-003	3,000000000000000E+000
2,9489669E-001	5,035545248877817E-003	3,000000000000000E+000
2,9889813E-001	5,072149630804143E-003	3,000000000000000E+000
3,0288997E-001	5,192624217064193E-003	3,000000000000000E+000
3,0688077E-001	5,225339833284846E-003	3,000000000000000E+000
3,1089917E-001	5,360604609045888E-003	3,000000000000000E+000
3,1491750E-001	5,388104668478860E-003	3,000000000000000E+000
3,1889769E-001	5,504368420386339E-003	3,000000000000000E+000
3,2287902E-001	5,546177597554783E-003	3,000000000000000E+000
3,2688567E-001	5,607096503000435E-003	3,000000000000000E+000
3,3084995E-001	5,698130567098940E-003	3,000000000000000E+000
3,3488744E-001	5,845546559107295E-003	3,000000000000000E+000
3,3890474E-001	5,870862049454903E-003	3,000000000000000E+000
3,4294009E-001	6,017638380904433E-003	3,000000000000000E+000
3,4690759E-001	6,055216642481473E-003	3,000000000000000E+000
3,5086015E-001	6,181021327291918E-003	3,000000000000000E+000
3,5490721E-001	6,204603774272600E-003	3,000000000000000E+000
3,5890862E-001	6,324943619498909E-003	3,000000000000000E+000
3,6283922E-001	6,391030691247582E-003	3,000000000000000E+000
3,6069930E-001	8,536340307219706E-004	3,000000000000000E+000
3,5667765E-001	1,516673646430414E-004	3,000000000000000E+000
3,5270602E-001	-3,440848678969298E-004	3,000000000000000E+000
3,4869823E-001	-7,082679460634362E-004	3,000000000000000E+000
3,4471163E-001	-1,021219069975304E-003	3,000000000000000E+000
3,4069121E-001	-1,239932414541220E-003	3,000000000000000E+000
3,3669934E-001	-1,484824245279822E-003	3,000000000000000E+000
3,3269471E-001	-1,626699349597191E-003	3,000000000000000E+000
3,2872301E-001	-1,828728558292719E-003	3,000000000000000E+000
3,2473326E-001	-1,931624053213440E-003	3,000000000000000E+000
3,2070535E-001	-2,089146243532819E-003	3,000000000000000E+000
3,1666896E-001	-2,181797596980076E-003	3,000000000000000E+000
3,1269616E-001	-2,326868534712249E-003	3,000000000000000E+000
3,0870327E-001	-2,388882957853229E-003	3,000000000000000E+000
3,0473581E-001	-2,508033769320009E-003	3,000000000000000E+000
3,0076197E-001	-2,566172684358502E-003	3,000000000000000E+000
2,9672131E-001	-2,674793557970477E-003	3,000000000000000E+000
2,9271993E-001	-2,724227888595325E-003	3,000000000000000E+000
2,8869727E-001	-2,785224621927936E-003	3,000000000000000E+000
2,8474680E-001	-2,849900812280887E-003	3,000000000000000E+000
2,8067115E-001	-2,960272429643529E-003	3,000000000000000E+000
2,7672911E-001	-2,979096496750973E-003	3,000000000000000E+000
2,7269059E-001	-3,058402784113734E-003	3,000000000000000E+000
2,6869661E-001	-3,087303683464090E-003	3,000000000000000E+000
2,6466233E-001	-3,165914827655381E-003	3,000000000000000E+000
2,6072031E-001	-3,150595043431750E-003	3,000000000000000E+000
2,5676450E-001	-3,221931383450278E-003	3,000000000000000E+000
2,5273553E-001	-3,272117326357850E-003	3,000000000000000E+000
2,4874368E-001	-3,331140543094871E-003	3,000000000000000E+000
2,4472529E-001	-3,348037788681608E-003	3,000000000000000E+000
2,4070373E-001	-3,414596569200505E-003	3,000000000000000E+000
2,3672993E-001	-3,426984758536693E-003	3,000000000000000E+000
2,3273699E-001	-3,482692136054122E-003	3,000000000000000E+000
2,2869954E-001	-3,486603983522695E-003	3,000000000000000E+000
2,2470132E-001	-3,518058724390948E-003	3,000000000000000E+000
2,2073703E-001	-3,570035993713330E-003	3,000000000000000E+000
2,1672395E-001	-3,614978512107167E-003	3,000000000000000E+000
2,1270663E-001	-3,620863800177981E-003	3,000000000000000E+000
2,0872325E-001	-3,682396749556761E-003	3,000000000000000E+000
2,0470700E-001	-3,692561130365993E-003	3,000000000000000E+000
2,0070347E-001	-3,746556435443263E-003	3,000000000000000E+000
1,9672859E-001	-3,739504578132033E-003	3,000000000000000E+000
1,9271553E-001	-3,800921308841979E-003	3,000000000000000E+000
1,8873109E-001	-3,816277267307861E-003	3,000000000000000E+000
1,8468723E-001	-3,852918099356541E-003	3,000000000000000E+000
1,8073571E-001	-3,868505755437776E-003	3,000000000000000E+000
1,7670670E-001	-3,944910046508675E-003	3,000000000000000E+000
1,7274559E-001	-3,930030680647970E-003	3,000000000000000E+000
1,6872828E-001	-4,007837412549023E-003	3,000000000000000E+000
1,6467914E-001	-3,995310023633966E-003	3,000000000000000E+000
1,6074455E-001	-4,009480949510660E-003	3,000000000000000E+000
1,5672405E-001	-4,050256689677344E-003	3,000000000000000E+000
1,5273964E-001	-4,115956704481477E-003	3,000000000000000E+000
1,4871702E-001	-4,120827980740510E-003	3,000000000000000E+000
1,4473681E-001	-4,178762129514416E-003	3,000000000000000E+000
1,4070784E-001	-4,181601384819544E-003	3,000000000000000E+000
1,3670112E-001	-4,253256247466197E-003	3,000000000000000E+000
1,3273577E-001	-4,243512337982064E-003	3,000000000000000E+000
1,2873648E-001	-4,332055690610993E-003	3,000000000000000E+000
1,2472873E-001	-4,305411080875055E-003	3,000000000000000E+000
1,2071459E-001	-4,346152592511782E-003	3,000000000000000E+000
1,1668560E-001	-4,371903666954780E-003	3,000000000000000E+000
1,1270966E-001	-4,429898073188568E-003	3,000000000000000E+000
1,0876129E-001	-4,428181218827369E-003	3,000000000000000E+000
1,0471427E-001	-4,497186306657056E-003	3,000000000000000E+000
1,0075741E-001	-4,489274323229125E-003	3,000000000000000E+000
9,6716762E-002	-4,505990444158663E-003	3,000000000000000E+000
9,2770509E-002	-4,560556068301774E-003	3,000000000000000E+000
8,8720307E-002	-4,646091550966958E-003	3,000000000000000E+000
8,4753908E-002	-4,629781526697727E-003	3,000000000000000E+000
8,0760986E-002	-4,694515249058062E-003	3,000000000000000E+000
7,6767005E-002	-4,691224966841715E-003	3,000000000000000E+000
7,2717868E-002	-4,771035020692371E-003	3,000000000000000E+000
6,8718582E-002	-4,760916384839227E-003	3,000000000000000E+000
6,4738385E-002	-4,831875321542611E-003	3,000000000000000E+000
6,3941717E-002	-3,994825452764382E-004	4,000000000000000E+000
6,7941003E-002	3,070572093596090E-005	4,000000000000000E+000
7,1927562E-002	3,046850218121717E-004	4,000000000000000E+000
7,5970344E-002	6,034172783478840E-004	4,000000000000000E+000
7,9948410E-002	7,735010451344554E-004	4,000000000000000E+000
8,3907373E-002	9,656859469942044E-004	4,000000000000000E+000
8,7937422E-002	1,145419514917496E-003	4,000000000000000E+000
9,1952629E-002	1,356723754927066E-003	4,000000000000000E+000
9,5943421E-002	1,452202092170610E-003	4,000000000000000E+000
9,9944822E-002	1,623731609773436E-003	4,000000000000000E+000
1,0392608E-001	1,714066263452376E-003	4,000000000000000E+000
1,0793173E-001	1,862481335895921E-003	4,000000000000000E+000
1,1189070E-001	1,903323314864910E-003	4,000000000000000E+000
1,1590166E-001	2,053337960913067E-003	4,000000000000000E+000
1,1991685E-001	2,105662789997749E-003	4,000000000000000E+000
1,2392781E-001	2,264557151445657E-003	4,000000000000000E+000
1,2788041E-001	2,285346161241059E-003	4,000000000000000E+000
1,3193060E-001	2,433643697764236E-003	4,000000000000000E+000
1,3587475E-001	2,469840610097487E-003	4,000000000000000E+000
1,3989735E-001	2,585241337631804E-003	4,000000000000000E+000
1,4394757E-001	2,603836142346464E-003	4,000000000000000E+000
1,4791928E-001	2,663523376516718E-003	4,000000000000000E+000
1,5190159E-001	2,738029847225543E-003	4,000000000000000E+000
1,5590298E-001	2,875980820034686E-003	4,000000000000000E+000
1,5988213E-001	2,881284371849487E-003	4,000000000000000E+000
1,6390687E-001	2,989548266972038E-003	4,000000000000000E+000
1,6786902E-001	2,998798377423856E-003	4,000000000000000E+000
1,7191394E-001	3,119064319131819E-003	4,000000000000000E+000
1,7591321E-001	3,119364002688814E-003	4,000000000000000E+000
1,7988171E-001	3,271733499382715E-003	4,000000000000000E+000
1,8389904E-001	3,254545434174371E-003	4,000000000000000E+000
1,8788561E-001	3,361598597621205E-003	4,000000000000000E+000
1,9190928E-001	3,367216190680575E-003	4,000000000000000E+000
1,9591069E-001	3,472899627215351E-003	4,000000000000000E+000
1,9991423E-001	3,476727630792681E-003	4,000000000000000E+000
2,0388804E-001	3,568989814084489E-003	4,000000000000000E+000
2,0793825E-001	3,579580608452988E-003	4,000000000000000E+000
2,1191525E-001	3,623572356041726E-003	4,000000000000000E+000
2,1588168E-001	3,686791390161204E-003	4,000000000000000E+000
2,1988942E-001	3,801441832062352E-003	4,000000000000000E+000
2,2389507E-001	3,806479475719653E-003	4,000000000000000E+000
2,2795059E-001	3,908686814611450E-003	4,000000000000000E+000
2,3190108E-001	3,939872008534920E-003	4,000000000000000E+000
2,3594494E-001	4,042056482527805E-003	4,000000000000000E+000
2,3994313E-001	4,053769912894092E-003	4,000000000000000E+000
2,4388622E-001	4,148590420097919E-003	4,000000000000000E+000
2,4795550E-001	4,179528648415351E-003	4,000000000000000E+000
2,5192827E-001	4,301026174087216E-003	4,000000000000000E+000
2,5592119E-001	4,301730347732582E-003	4,000000000000000E+000
2,5994912E-001	4,415415366060604E-003	4,000000000000000E+000
2,6389745E-001	4,445401498944409E-003	4,000000000000000E+000
2,6791054E-001	4,552593580431002E-003	4,000000000000000E+000
2,7189815E-001	4,560871023891707E-003	4,000000000000000E+000
2,7590486E-001	4,629504222571593E-003	4,000000000000000E+000
2,7988291E-001	4,715353765479671E-003	4,000000000000000E+000
2,8389177E-001	4,827782347193638E-003	4,000000000000000E+000
2,8792816E-001	4,861575243719732E-003	4,000000000000000E+000
2,9195929E-001	4,980392206764245E-003	4,000000000000000E+000
2,9590979E-001	5,009841675928339E-003	4,000000000000000E+000
2,9990056E-001	5,138082749100353E-003	4,000000000000000E+000
3,0389348E-001	5,158627392827657E-003	4,000000000000000E+000
3,0790126E-001	5,238401250810285E-003	4,000000000000000E+000
3,1189948E-001	5,316823312265732E-003	4,000000000000000E+000
3,1586909E-001	5,451496061545588E-003	4,000000000000000E+000
3,1988853E-001	5,486272262512813E-003	4,000000000000000E+000
3,2390371E-001	5,597598120301792E-003	4,000000000000000E+000
3,2783195E-001	5,640040589140792E-003	4,000000000000000E+000
3,3193091E-001	5,785309651400911E-003	4,000000000000000E+000
3,3591750E-001	5,816567096594047E-003	4,000000000000000E+000
3,3988923E-001	5,885255622868311E-003	4,000000000000000E+000
3,4390965E-001	5,971200290837779E-003	4,000000000000000E+000
3,4789518E-001	6,134932432663259E-003	4,000000000000000E+000
3,5186586E-001	6,151519055694943E-003	4,000000000000000E+000
3,5587147E-001	6,293596050252537E-003	4,000000000000000E+000
3,5986862E-001	6,340436160017919E-003	4,000000000000000E+000
3,6322835E-001	6,406390573829412E-003	4,000000000000000E+000
3,5967875E-001	6,851445404613046E-004	4,000000000000000E+000
3,5571131E-001	-3,997896307655284E-005	4,000000000000000E+000
3,5171726E-001	-4,496861168819203E-004	4,000000000000000E+000
3,4770635E-001	-8,414923947586608E-004	4,000000000000000E+000
3,4368587E-001	-1,043624350030665E-003	4,000000000000000E+000
3,3968440E-001	-1,254906396954737E-003	4,000000000000000E+000
3,3569366E-001	-1,481988336612018E-003	4,000000000000000E+000
3,3169332E-001	-1,725419302197720E-003	4,000000000000000E+000
3,2768869E-001	-1,803858009124165E-003	4,000000000000000E+000
3,2368839E-001	-2,011452861754345E-003	4,000000000000000E+000
3,1968272E-001	-2,080526495976509E-003	4,000000000000000E+000
3,1566539E-001	-2,254697236720756E-003	4,000000000000000E+000
3,1167355E-001	-2,301260322484365E-003	4,000000000000000E+000
3,0771986E-001	-2,418889280710976E-003	4,000000000000000E+000
3,0371633E-001	-2,502537198072086E-003	4,000000000000000E+000
2,9971281E-001	-2,645583973288818E-003	4,000000000000000E+000
2,9572091E-001	-2,672208697428379E-003	4,000000000000000E+000
2,9175562E-001	-2,785807214119505E-003	4,000000000000000E+000
2,8774998E-001	-2,812952102734322E-003	4,000000000000000E+000
2,8370079E-001	-2,932408822541905E-003	4,000000000000000E+000
2,7967820E-001	-2,944644269518890E-003	4,000000000000000E+000
2,7570438E-001	-2,983289765527131E-003	4,000000000000000E+000
2,7172416E-001	-3,032090899068862E-003	4,000000000000000E+000
2,6774079E-001	-3,144833315673168E-003	4,000000000000000E+000
2,6368427E-001	-3,135722768800191E-003	4,000000000000000E+000
2,5973588E-001	-3,237866536437643E-003	4,000000000000000E+000
2,5572065E-001	-3,233209290556260E-003	4,000000000000000E+000
2,5174046E-001	-3,333870925416697E-003	4,000000000000000E+000
2,4771895E-001	-3,313427944805068E-003	4,000000000000000E+000
2,4372073E-001	-3,382014375852612E-003	4,000000000000000E+000
2,3971719E-001	-3,388844372036834E-003	4,000000000000000E+000
2,3575184E-001	-3,477467020275054E-003	4,000000000000000E+000
2,3176211E-001	-3,458976311069110E-003	4,000000000000000E+000
2,2771825E-001	-3,542690610023186E-003	4,000000000000000E+000
2,2370942E-001	-3,538499947656717E-003	4,000000000000000E+000
2,1967302E-001	-3,618063647688052E-003	4,000000000000000E+000
2,1571617E-001	-3,581266117382444E-003	4,000000000000000E+000
2,1169885E-001	-3,615569037922085E-003	4,000000000000000E+000
2,0772077E-001	-3,662726273533840E-003	4,000000000000000E+000
2,0372999E-001	-3,748390395129614E-003	4,000000000000000E+000
1,9969356E-001	-3,721569051372650E-003	4,000000000000000E+000
1,9569321E-001	-3,796208383694960E-003	4,000000000000000E+000
1,9174170E-001	-3,777939519245085E-003	4,000000000000000E+000
1,8770209E-001	-3,877680821460658E-003	4,000000000000000E+000
1,8370916E-001	-3,824502622794372E-003	4,000000000000000E+000
1,7970879E-001	-3,974215029706504E-003	4,000000000000000E+000
1,7570105E-001	-3,918997679849975E-003	4,000000000000000E+000
1,7171767E-001	-3,999764083548338E-003	4,000000000000000E+000
1,6770354E-001	-3,965706009492143E-003	4,000000000000000E+000
1,6372654E-001	-4,064234300636183E-003	4,000000000000000E+000
1,5971981E-001	-4,049168022094009E-003	4,000000000000000E+000
1,5566006E-001	-4,124727700400413E-003	4,000000000000000E+000
1,5174140E-001	-4,092931682761342E-003	4,000000000000000E+000
1,4776227E-001	-4,115340733228029E-003	4,000000000000000E+000
1,4368449E-001	-4,155394041542103E-003	4,000000000000000E+000
1,3975203E-001	-4,248155924061484E-003	4,000000000000000E+000
1,3572836E-001	-4,210729563055765E-003	4,000000000000000E+000
1,3174815E-001	-4,310378188771807E-003	4,000000000000000E+000
1,2777010E-001	-4,272342513205421E-003	4,000000000000000E+000
1,2369654E-001	-4,368103965437804E-003	4,000000000000000E+000
1,1976834E-001	-4,340739645461639E-003	4,000000000000000E+000
1,1570541E-001	-4,416223301329097E-003	4,000000000000000E+000
1,1172947E-001	-4,415468419109746E-003	4,000000000000000E+000
1,0772063E-001	-4,490232254384954E-003	4,000000000000000E+000
1,0370649E-001	-4,480525669754945E-003	4,000000000000000E+000
9,9748574E-002	-4,562420916853535E-003	4,000000000000000E+000
9,5723838E-002	-4,564959430151935E-003	4,000000000000000E+000
9,1744706E-002	-4,625537248810124E-003	4,000000000000000E+000
8,7714650E-002	-4,618398518181910E-003	4,000000000000000E+000
8,3693087E-002	-4,638822222558590E-003	4,000000000000000E+000
7,9744734E-002	-4,676844294509541E-003	4,000000000000000E+000
7,5734831E-002	-4,769285315786763E-003	4,000000000000000E+000
7,1715392E-002	-4,759846872426962E-003	4,000000000000000E+000
6,7717165E-002	-4,835082413693348E-003	4,000000000000000E+000
6,3721068E-002	-4,817290586894743E-003	4,000000000000000E+000
6,4937815E-002	-2,707217763473751E-004	4,000000000000000E+000
6,8913765E-002	4,671780730960694E-005	4,000000000000000E+000
7,2891839E-002	3,894470676060443E-004	4,000000000000000E+000
7,6924011E-002	5,993337665333668E-004	4,000000000000000E+000
8,0945574E-002	8,391083934940185E-004	4,000000000000000E+000
8,4924705E-002	9,979789264333572E-004	4,000000000000000E+000
8,8973850E-002	1,196255355150944E-003	4,000000000000000E+000
9,2925400E-002	1,326661698941377E-003	4,000000000000000E+000
9,6933164E-002	1,452849394101785E-003	4,000000000000000E+000
1,0097382E-001	1,572688003458708E-003	4,000000000000000E+000
1,0492855E-001	1,734947096641316E-003	4,000000000000000E+000
1,0891935E-001	1,810783344505285E-003	4,000000000000000E+000
1,1291759E-001	1,965456258807945E-003	4,000000000000000E+000
1,1691367E-001	2,025132824605362E-003	4,000000000000000E+000
1,2091403E-001	2,141030348260152E-003	4,000000000000000E+000
1,2492499E-001	2,232097277454975E-003	4,000000000000000E+000
1,2894230E-001	2,343522208927133E-003	4,000000000000000E+000
1,3293946E-001	2,379581989266133E-003	4,000000000000000E+000
1,3477896E-001	2,459245656306543E-003	4,000000000000000E+000