File: fig_si_ecsa/CeO2/500.txt
EC-Lab ASCII FILE
Nb header lines : 59

Cyclic Voltammetry

Run on channel : 1 (SN 10336)
User :
CE vs. WE compliance from -10 V to 10 V
Electrode connection : standard
Potential control : Ewe
Ewe ctrl range : min = -2,50 V, max = 2,50 V
Safety Limits :
	Do not start on E overload
Acquisition started on : 10/13/2024 13:58:28.596
Technique started on : 10/13/2024 14:06:14.749
Loaded Setting File :  C:\EC-lab data\Neethu\Methods\CV_ECSA.mps
Saved on :
	File : CV_ECSA_07_CV_C01.mpr
	Directory : C:\EC-lab data\Neethu\2024_10_13_Ni90Fe10_CeO2\CV_ECSA\
	Host : 10.54.33.65
Device : VMP3 (SN 0498)
Address : USB
EC-Lab for windows v11.52 (software)
Internet server v11.52 (firmware)
Command interpretor v11.50 (firmware)
Electrode material :
Initial state :
Electrolyte :
Comments :
Electrode surface area : 0,001 cm²
Characteristic mass : 0,001 g
Volume (V) : 0,001 cm³
Thickness (t) : 0,000 cm
Diameter (d) : 0,000 cm
Cell constant (k=t/A) : 0,000 cm-1
Cycle Definition : Charge/Discharge alternance
Ei (V)              0,064
vs.                 Ref
dE/dt               500,000
dE/dt unit          mV/s
E1 (V)              0,364
vs.                 Ref
Step percent        50
N                   10
E range min (V)     -2,500
E range max (V)     2,500
I Range             Auto
I Range min         Unset
I Range max         Unset
I Range init        Unset
Bandwidth           5
E2 (V)              0,064
vs.                 Ref
nc cycles           3
Reverse Scan        1
Ef (V)              0,070
vs.                 Eoc

Ewe/V	<I>/mA	cycle number
7,7685706E-002	3,399961441755295E-002	1,000000000000000E+000
8,0324993E-002	8,914128722671624E-003	1,000000000000000E+000
8,3533973E-002	1,137271328308190E-002	1,000000000000000E+000
8,6640052E-002	1,363930866136802E-002	1,000000000000000E+000
8,9695193E-002	1,503416855080608E-002	1,000000000000000E+000
9,2644274E-002	1,584976899984115E-002	1,000000000000000E+000
9,5700487E-002	1,650882362749448E-002	1,000000000000000E+000
9,8662294E-002	1,722885639517499E-002	1,000000000000000E+000
1,0165805E-001	1,733730012387646E-002	1,000000000000000E+000
1,0464636E-001	1,769645033669398E-002	1,000000000000000E+000
1,0764848E-001	1,785168943933971E-002	1,000000000000000E+000
1,1065380E-001	1,788840328926095E-002	1,000000000000000E+000
1,1363256E-001	1,844307975665697E-002	1,000000000000000E+000
1,1665378E-001	1,863361950179543E-002	1,000000000000000E+000
1,1966544E-001	1,886840614052843E-002	1,000000000000000E+000
1,2265164E-001	1,875833443712814E-002	1,000000000000000E+000
1,2565695E-001	1,928340551724739E-002	1,000000000000000E+000
1,2864314E-001	1,956314894859035E-002	1,000000000000000E+000
1,3164419E-001	1,956558820731727E-002	1,000000000000000E+000
1,3466328E-001	1,995512132473071E-002	1,000000000000000E+000
1,3768555E-001	2,046116404663834E-002	1,000000000000000E+000
1,4066328E-001	2,040039767436812E-002	1,000000000000000E+000
1,4364100E-001	2,076400277130439E-002	1,000000000000000E+000
1,4665794E-001	2,091782875787540E-002	1,000000000000000E+000
1,4966646E-001	2,118483965225307E-002	1,000000000000000E+000
1,5264310E-001	2,117217724137138E-002	1,000000000000000E+000
1,5564521E-001	2,111519448873078E-002	1,000000000000000E+000
1,5863989E-001	2,125239552737593E-002	1,000000000000000E+000
1,6167171E-001	2,110125974205507E-002	1,000000000000000E+000
1,6458684E-001	2,144958465093316E-002	1,000000000000000E+000
1,6764411E-001	2,159877553640394E-002	1,000000000000000E+000
1,7065473E-001	2,181948563763109E-002	1,000000000000000E+000
1,7364942E-001	2,171450816523351E-002	1,000000000000000E+000
1,7669185E-001	2,192064519557699E-002	1,000000000000000E+000
1,7964302E-001	2,218217310777010E-002	1,000000000000000E+000
1,8267591E-001	2,231321986336193E-002	1,000000000000000E+000
1,8562818E-001	2,237076683619911E-002	1,000000000000000E+000
1,8866211E-001	2,285395969576909E-002	1,000000000000000E+000
1,9163665E-001	2,288140687677606E-002	1,000000000000000E+000
1,9463028E-001	2,326347607676221E-002	1,000000000000000E+000
1,9766848E-001	2,318173520325212E-002	1,000000000000000E+000
2,0061648E-001	2,339445335140539E-002	1,000000000000000E+000
2,0363025E-001	2,338235396463362E-002	1,000000000000000E+000
2,0665359E-001	2,348903278996450E-002	1,000000000000000E+000
2,0963344E-001	2,373188335049142E-002	1,000000000000000E+000
2,1262915E-001	2,341390702430440E-002	1,000000000000000E+000
2,1565993E-001	2,389628424013303E-002	1,000000000000000E+000
2,1865462E-001	2,395457566227475E-002	1,000000000000000E+000
2,2168219E-001	2,413238246865346E-002	1,000000000000000E+000
2,2468114E-001	2,406224149470082E-002	1,000000000000000E+000
2,2764505E-001	2,452400024210671E-002	1,000000000000000E+000
2,3063868E-001	2,478191934925333E-002	1,000000000000000E+000
2,3367050E-001	2,462876737546243E-002	1,000000000000000E+000
2,3667580E-001	2,496917111178243E-002	1,000000000000000E+000
2,3965886E-001	2,540008597134147E-002	1,000000000000000E+000
2,4265778E-001	2,545321157837556E-002	1,000000000000000E+000
2,4565139E-001	2,562595999148054E-002	1,000000000000000E+000
2,4869065E-001	2,563388412211992E-002	1,000000000000000E+000
2,5163761E-001	2,580610127956284E-002	1,000000000000000E+000
2,5464714E-001	2,612903113994336E-002	1,000000000000000E+000
2,5763121E-001	2,620942843471619E-002	1,000000000000000E+000
2,6065034E-001	2,648450206551289E-002	1,000000000000000E+000
2,6365665E-001	2,633191381877020E-002	1,000000000000000E+000
2,6666406E-001	2,668091291383864E-002	1,000000000000000E+000
2,6963121E-001	2,704062895686055E-002	1,000000000000000E+000
2,7264392E-001	2,742764987124252E-002	1,000000000000000E+000
2,7563968E-001	2,771429117355084E-002	1,000000000000000E+000
2,7860999E-001	2,812932486793007E-002	1,000000000000000E+000
2,8163540E-001	2,846650772254276E-002	1,000000000000000E+000
2,8463754E-001	2,835197931805546E-002	1,000000000000000E+000
2,8766933E-001	2,870083604850352E-002	1,000000000000000E+000
2,9066297E-001	2,923467874926344E-002	1,000000000000000E+000
2,9362902E-001	2,930099798646146E-002	1,000000000000000E+000
2,9661736E-001	2,955198473015726E-002	1,000000000000000E+000
2,9966506E-001	2,998725112128253E-002	1,000000000000000E+000
3,0258656E-001	2,999032735897345E-002	1,000000000000000E+000
3,0564389E-001	3,034915985376252E-002	1,000000000000000E+000
3,0860564E-001	3,029306327274145E-002	1,000000000000000E+000
3,1166291E-001	3,104160226939717E-002	1,000000000000000E+000
3,1462687E-001	3,107941396592645E-002	1,000000000000000E+000
3,1765231E-001	3,172332882968482E-002	1,000000000000000E+000
3,2065761E-001	3,204530169225317E-002	1,000000000000000E+000
3,2364169E-001	3,269866207523997E-002	1,000000000000000E+000
3,2663953E-001	3,284173557444270E-002	1,000000000000000E+000
3,2959816E-001	3,371102834029849E-002	1,000000000000000E+000
3,3266714E-001	3,393378729621577E-002	1,000000000000000E+000
3,3561620E-001	3,403027942153536E-002	1,000000000000000E+000
3,3866498E-001	3,453175914101947E-002	1,000000000000000E+000
3,4159920E-001	3,495786131801037E-002	1,000000000000000E+000
3,4461725E-001	3,521249210785349E-002	1,000000000000000E+000
3,4763846E-001	3,555098718384708E-002	1,000000000000000E+000
3,5064164E-001	3,603142108840990E-002	1,000000000000000E+000
3,5363740E-001	3,620257844926933E-002	1,000000000000000E+000
3,5663205E-001	3,685483998722494E-002	1,000000000000000E+000
3,5964903E-001	3,713953211990889E-002	1,000000000000000E+000
3,6262572E-001	3,773478241176531E-002	1,000000000000000E+000
3,6338112E-001	3,704541921615601E-002	1,000000000000000E+000
3,6026007E-001	8,571794022853160E-004	1,000000000000000E+000
3,5751569E-001	-6,453068937187492E-003	1,000000000000000E+000
3,5456663E-001	-9,412744125863078E-003	1,000000000000000E+000
3,5160485E-001	-1,062254794548303E-002	1,000000000000000E+000
3,4862927E-001	-1,195756160329134E-002	1,000000000000000E+000
3,3063352E-001	-1,620263393710453E-002	1,000000000000000E+000
3,2759854E-001	-1,650898881841081E-002	1,000000000000000E+000
3,2462931E-001	-1,718006684334089E-002	1,000000000000000E+000
3,2161871E-001	-1,779065188161949E-002	1,000000000000000E+000
3,1859964E-001	-1,822223698299134E-002	1,000000000000000E+000
3,1563038E-001	-1,855795199399940E-002	1,000000000000000E+000
3,1258798E-001	-1,875923977543911E-002	1,000000000000000E+000
3,0963466E-001	-1,928740059136341E-002	1,000000000000000E+000
3,0664632E-001	-1,917525958055599E-002	1,000000000000000E+000
3,0363679E-001	-1,948019842691590E-002	1,000000000000000E+000
3,0065694E-001	-1,978478334785910E-002	1,000000000000000E+000
2,9764211E-001	-2,010210412643372E-002	1,000000000000000E+000
2,9463574E-001	-2,031082187588462E-002	1,000000000000000E+000
2,9162836E-001	-2,055597462943587E-002	1,000000000000000E+000
2,8862619E-001	-2,056800478789633E-002	1,000000000000000E+000
2,8566015E-001	-2,100630865728213E-002	1,000000000000000E+000
2,7521092E-001	-2,181278038730150E-002	1,000000000000000E+000
2,6468354E-001	-2,278025011562729E-002	1,000000000000000E+000
2,6169628E-001	-2,217379289383337E-002	1,000000000000000E+000
2,5869098E-001	-2,243309257715337E-002	1,000000000000000E+000
2,5570053E-001	-2,242248220176807E-002	1,000000000000000E+000
2,5270584E-001	-2,245877165761262E-002	1,000000000000000E+000
2,4967507E-001	-2,220322142400416E-002	1,000000000000000E+000
2,4669950E-001	-2,264117636999195E-002	1,000000000000000E+000
2,4366131E-001	-2,278354079802136E-002	1,000000000000000E+000
2,4067934E-001	-2,295505180882174E-002	1,000000000000000E+000
2,3763375E-001	-2,300906102189210E-002	1,000000000000000E+000
2,3468255E-001	-2,350481142113703E-002	1,000000000000000E+000
2,3167723E-001	-2,368601055180372E-002	1,000000000000000E+000
2,2864649E-001	-2,352903870673284E-002	1,000000000000000E+000
2,2564329E-001	-2,352157518180314E-002	1,000000000000000E+000
2,2268258E-001	-2,363447725373491E-002	1,000000000000000E+000
2,1966347E-001	-2,372711167966673E-002	1,000000000000000E+000
2,1666455E-001	-2,388040737544836E-002	1,000000000000000E+000
2,1365182E-001	-2,408565954586565E-002	1,000000000000000E+000
2,1069214E-001	-2,382452046691066E-002	1,000000000000000E+000
2,0770910E-001	-2,414228933937718E-002	1,000000000000000E+000
2,0462212E-001	-2,427347579335525E-002	1,000000000000000E+000
2,0162743E-001	-2,430032144345912E-002	1,000000000000000E+000
1,9867519E-001	-2,417362719360322E-002	1,000000000000000E+000
1,9565396E-001	-2,448106497467956E-002	1,000000000000000E+000
1,9268262E-001	-2,446780133120935E-002	1,000000000000000E+000
1,8966778E-001	-2,468228506930040E-002	1,000000000000000E+000
1,8665612E-001	-2,492577372282140E-002	1,000000000000000E+000
1,8365295E-001	-2,518068693178865E-002	1,000000000000000E+000
1,8066035E-001	-2,516137527022200E-002	1,000000000000000E+000
1,7764021E-001	-2,495721754086030E-002	1,000000000000000E+000
1,7464234E-001	-2,516130505278447E-002	1,000000000000000E+000
1,7166461E-001	-2,550563382990531E-002	1,000000000000000E+000
1,6864978E-001	-2,550570466822438E-002	1,000000000000000E+000
1,6560628E-001	-2,580299129517188E-002	1,000000000000000E+000
1,6265193E-001	-2,588338501664111E-002	1,000000000000000E+000
1,5966570E-001	-2,551161025177051E-002	1,000000000000000E+000
1,5665828E-001	-2,584122584852999E-002	1,000000000000000E+000
1,5363814E-001	-2,569564140948283E-002	1,000000000000000E+000
1,5066679E-001	-2,592487640221286E-002	1,000000000000000E+000
1,4766255E-001	-2,593792733589206E-002	1,000000000000000E+000
1,4467315E-001	-2,617819744207539E-002	1,000000000000000E+000
1,4164454E-001	-2,622934321576992E-002	1,000000000000000E+000
1,3864453E-001	-2,649483272155821E-002	1,000000000000000E+000
1,3564774E-001	-2,678907839759227E-002	1,000000000000000E+000
1,3265729E-001	-2,714914598739898E-002	1,000000000000000E+000
1,2964880E-001	-2,687513300528130E-002	1,000000000000000E+000
1,2667003E-001	-2,678027055743670E-002	1,000000000000000E+000
1,2366790E-001	-2,689631843289440E-002	1,000000000000000E+000
1,2068595E-001	-2,673679903091397E-002	1,000000000000000E+000
1,1764777E-001	-2,703592665420718E-002	1,000000000000000E+000
1,1462443E-001	-2,704855328233341E-002	1,000000000000000E+000
1,1167005E-001	-2,745396639309346E-002	1,000000000000000E+000
1,0863929E-001	-2,713326455745524E-002	1,000000000000000E+000
1,0568915E-001	-2,754568259277018E-002	1,000000000000000E+000
1,0269341E-001	-2,730293482454726E-002	1,000000000000000E+000
9,9687047E-002	-2,756761227202437E-002	1,000000000000000E+000
9,6645683E-002	-2,769328111147236E-002	1,000000000000000E+000
9,3723126E-002	-2,815231531429963E-002	1,000000000000000E+000
9,0675399E-002	-2,846841969423819E-002	1,000000000000000E+000
8,7689184E-002	-2,854181172976195E-002	1,000000000000000E+000
8,4679648E-002	-2,872283787777022E-002	1,000000000000000E+000
8,1715725E-002	-2,904605121633118E-002	1,000000000000000E+000
7,8673288E-002	-2,900272140929400E-002	1,000000000000000E+000
7,5693466E-002	-2,906189688777269E-002	1,000000000000000E+000
7,2658457E-002	-2,925586640776606E-002	1,000000000000000E+000
6,9696650E-002	-2,907158833396456E-002	1,000000000000000E+000
6,6675447E-002	-2,934485800506087E-002	1,000000000000000E+000
6,3776538E-002	-2,930071836090076E-002	1,000000000000000E+000
6,3154608E-002	-2,857842296361923E-002	2,000000000000000E+000
6,6277646E-002	1,151601438209581E-003	2,000000000000000E+000
6,9135480E-002	9,142019000743573E-003	2,000000000000000E+000
7,2011359E-002	1,157570292788376E-002	2,000000000000000E+000
7,4981660E-002	1,301912645491637E-002	2,000000000000000E+000
7,7966794E-002	1,389521173526496E-002	2,000000000000000E+000
8,0989055E-002	1,430232318731828E-002	2,000000000000000E+000
8,3968893E-002	1,440765557425849E-002	2,000000000000000E+000
8,6936004E-002	1,519556257274721E-002	2,000000000000000E+000
8,9987978E-002	1,549688205159325E-002	2,000000000000000E+000
9,2954040E-002	1,583629448173776E-002	2,000000000000000E+000
9,5997512E-002	1,620594776553237E-002	2,000000000000000E+000
9,9012375E-002	1,697132460544204E-002	2,000000000000000E+000
1,0198902E-001	1,688891267440343E-002	2,000000000000000E+000
1,0493492E-001	1,731112538497348E-002	2,000000000000000E+000
1,0793598E-001	1,734685058565655E-002	2,000000000000000E+000
1,2591791E-001	1,852186094199876E-002	2,000000000000000E+000
1,2895821E-001	1,906381753198930E-002	2,000000000000000E+000
1,3195820E-001	1,919293938226482E-002	2,000000000000000E+000
1,3498259E-001	1,911511192904286E-002	2,000000000000000E+000
1,3794546E-001	1,933090498035506E-002	2,000000000000000E+000
1,4094332E-001	1,932772067286552E-002	2,000000000000000E+000
1,4394438E-001	1,946108787039221E-002	2,000000000000000E+000
1,4692315E-001	1,966060764546756E-002	2,000000000000000E+000
1,4995392E-001	2,008936110440923E-002	2,000000000000000E+000
1,5295604E-001	2,033557777233197E-002	2,000000000000000E+000
1,5596239E-001	2,062778088454953E-002	2,000000000000000E+000
1,5896769E-001	2,083543636318708E-002	2,000000000000000E+000
1,6193692E-001	2,087611770507963E-002	2,000000000000000E+000
1,6491041E-001	2,086798196008510E-002	2,000000000000000E+000
1,6794115E-001	2,077812806156648E-002	2,000000000000000E+000
1,7094646E-001	2,116478373621555E-002	2,000000000000000E+000
1,8144904E-001	2,208473133580377E-002	2,000000000000000E+000
1,9191669E-001	2,257945150550872E-002	2,000000000000000E+000
1,9494747E-001	2,248345610981534E-002	2,000000000000000E+000
1,9795169E-001	2,248738171369452E-002	2,000000000000000E+000
2,0091775E-001	2,283938822276665E-002	2,000000000000000E+000
2,0394003E-001	2,278187547765104E-002	2,000000000000000E+000
2,0700154E-001	2,278141619859125E-002	2,000000000000000E+000
2,0994636E-001	2,303915751447982E-002	2,000000000000000E+000
2,1292515E-001	2,294139477615109E-002	2,000000000000000E+000
2,1593150E-001	2,314597609600033E-002	2,000000000000000E+000
2,1894531E-001	2,350381724964901E-002	2,000000000000000E+000
2,2195908E-001	2,360497604685301E-002	2,000000000000000E+000
2,2494103E-001	2,325693290266723E-002	2,000000000000000E+000
2,2795272E-001	2,365990606105894E-002	2,000000000000000E+000
2,3095797E-001	2,395655586102902E-002	2,000000000000000E+000
2,3397921E-001	2,420779104876497E-002	2,000000000000000E+000
2,3699725E-001	2,450875474419767E-002	2,000000000000000E+000
2,3996010E-001	2,502983108206533E-002	2,000000000000000E+000
2,4293572E-001	2,499965934718303E-002	2,000000000000000E+000
2,4597387E-001	2,520593874214683E-002	2,000000000000000E+000
2,4897176E-001	2,513859495593351E-002	2,000000000000000E+000
2,5192827E-001	2,540227894981711E-002	2,000000000000000E+000
2,5496855E-001	2,564332643345953E-002	2,000000000000000E+000
2,5796643E-001	2,565584768510432E-002	2,000000000000000E+000
2,6089853E-001	2,597410954978042E-002	2,000000000000000E+000
2,6394311E-001	2,588968013353421E-002	2,000000000000000E+000
2,6694947E-001	2,620122308103934E-002	2,000000000000000E+000
2,6993671E-001	2,667960538262071E-002	2,000000000000000E+000
2,7293986E-001	2,686720769068207E-002	2,000000000000000E+000
2,7594519E-001	2,685688112817131E-002	2,000000000000000E+000
2,7895048E-001	2,734198309553904E-002	2,000000000000000E+000
2,8192821E-001	2,762996711236254E-002	2,000000000000000E+000
2,8498968E-001	2,791943632109908E-002	2,000000000000000E+000
2,8795576E-001	2,833761953216818E-002	2,000000000000000E+000
2,9094407E-001	2,892501303762807E-002	2,000000000000000E+000
2,9395890E-001	2,897934015426368E-002	2,000000000000000E+000
2,9691967E-001	2,927355089963793E-002	2,000000000000000E+000
2,9993135E-001	2,944286906899332E-002	2,000000000000000E+000
3,0293983E-001	2,975748674766184E-002	2,000000000000000E+000
3,0593979E-001	2,996500374542341E-002	2,000000000000000E+000
3,0893555E-001	3,003171135626170E-002	2,000000000000000E+000
3,1190586E-001	3,053605691012412E-002	2,000000000000000E+000
3,1485918E-001	3,046503299669392E-002	2,000000000000000E+000
3,1788036E-001	3,131430694742843E-002	2,000000000000000E+000
3,2093021E-001	3,139243665726903E-002	2,000000000000000E+000
3,2389522E-001	3,180174437632860E-002	2,000000000000000E+000
3,2692173E-001	3,205881194137178E-002	2,000000000000000E+000
3,2992172E-001	3,271991803073124E-002	2,000000000000000E+000
3,3292809E-001	3,324718419106730E-002	2,000000000000000E+000
3,3594400E-001	3,349420894867050E-002	2,000000000000000E+000
3,3895248E-001	3,407923003437141E-002	2,000000000000000E+000
3,4191215E-001	3,484680078124969E-002	2,000000000000000E+000
3,4495461E-001	3,497211641822806E-002	2,000000000000000E+000
3,4795034E-001	3,533420366632833E-002	2,000000000000000E+000
3,5094503E-001	3,556513636875847E-002	2,000000000000000E+000
3,5393226E-001	3,601989021303276E-002	2,000000000000000E+000
3,5688773E-001	3,652901043864809E-002	2,000000000000000E+000
3,5989729E-001	3,671088264794298E-002	2,000000000000000E+000
3,6275730E-001	3,734672000609857E-002	2,000000000000000E+000
3,6340022E-001	3,680603206157684E-002	2,000000000000000E+000
3,6030355E-001	3,405267278190540E-004	2,000000000000000E+000
3,5745737E-001	-6,769314109280625E-003	2,000000000000000E+000
3,5456878E-001	-9,998545183003027E-003	2,000000000000000E+000
3,5161865E-001	-1,110386571943105E-002	2,000000000000000E+000
3,4861970E-001	-1,248797356897235E-002	2,000000000000000E+000
3,4562078E-001	-1,358717355833503E-002	2,000000000000000E+000
3,4264204E-001	-1,439343773442185E-002	2,000000000000000E+000
3,3962506E-001	-1,500152313646039E-002	2,000000000000000E+000
3,2160383E-001	-1,834428368985958E-002	2,000000000000000E+000
3,1862825E-001	-1,873730750776298E-002	2,000000000000000E+000
3,1559429E-001	-1,920179181029702E-002	2,000000000000000E+000
3,1263357E-001	-1,931853001486966E-002	2,000000000000000E+000
3,0963674E-001	-1,948727381224880E-002	2,000000000000000E+000
3,0662191E-001	-1,962877690392711E-002	2,000000000000000E+000
3,0362511E-001	-1,956191746325608E-002	2,000000000000000E+000
3,0067819E-001	-2,003029216494828E-002	2,000000000000000E+000
2,9765907E-001	-2,027756808133235E-002	2,000000000000000E+000
2,9470152E-001	-2,063344918133225E-002	2,000000000000000E+000
2,9166120E-001	-2,087081984912702E-002	2,000000000000000E+000
2,8862941E-001	-2,090867116647943E-002	2,000000000000000E+000
2,8569835E-001	-2,126136836078421E-002	2,000000000000000E+000
2,8265700E-001	-2,108165989718848E-002	2,000000000000000E+000
2,7964002E-001	-2,136572648224599E-002	2,000000000000000E+000
2,7662623E-001	-2,161512620659783E-002	2,000000000000000E+000
2,7360925E-001	-2,191652766931740E-002	2,000000000000000E+000
2,5563049E-001	-2,132352764763507E-002	2,000000000000000E+000
2,5267294E-001	-2,239277068939477E-002	2,000000000000000E+000
2,4963053E-001	-2,236808223784054E-002	2,000000000000000E+000
2,4667084E-001	-2,276009121245198E-002	2,000000000000000E+000
2,4368569E-001	-2,300159896428033E-002	2,000000000000000E+000
2,4065708E-001	-2,326535470355237E-002	2,000000000000000E+000
2,3763797E-001	-2,331041495360991E-002	2,000000000000000E+000
2,3461889E-001	-2,377033536160733E-002	2,000000000000000E+000
2,3164116E-001	-2,360027561614209E-002	2,000000000000000E+000
2,2866663E-001	-2,349306734928780E-002	2,000000000000000E+000
2,2567299E-001	-2,367621490096404E-002	2,000000000000000E+000
2,2267514E-001	-2,412859920797120E-002	2,000000000000000E+000
2,1965817E-001	-2,417465239705047E-002	2,000000000000000E+000
2,1669742E-001	-2,411788235137152E-002	2,000000000000000E+000
2,1360302E-001	-2,412431974719065E-002	2,000000000000000E+000
2,1065289E-001	-2,393933412086979E-002	2,000000000000000E+000
2,0766033E-001	-2,410691891620648E-002	2,000000000000000E+000
2,0464654E-001	-2,432472708339134E-002	2,000000000000000E+000
2,0162213E-001	-2,445517270057779E-002	2,000000000000000E+000
1,9862108E-001	-2,421469081592575E-002	2,000000000000000E+000
1,9561578E-001	-2,458017119473271E-002	2,000000000000000E+000
1,9266777E-001	-2,473863064814297E-002	2,000000000000000E+000
1,8965292E-001	-2,501257137676781E-002	2,000000000000000E+000
1,8664339E-001	-2,514970187540816E-002	2,000000000000000E+000
1,8365505E-001	-2,574749528947795E-002	2,000000000000000E+000
1,8064764E-001	-2,555154366523821E-002	2,000000000000000E+000
1,7766672E-001	-2,530674576701131E-002	2,000000000000000E+000
1,7465082E-001	-2,536054469601370E-002	2,000000000000000E+000
1,7163916E-001	-2,549555133171252E-002	2,000000000000000E+000
1,6867419E-001	-2,567852314960972E-002	2,000000000000000E+000
1,6559885E-001	-2,594125236444400E-002	2,000000000000000E+000
1,6266464E-001	-2,596325303117425E-002	2,000000000000000E+000
1,5965828E-001	-2,553576831188470E-002	2,000000000000000E+000
1,5664023E-001	-2,587136022702904E-002	2,000000000000000E+000
1,5366572E-001	-2,563013571004064E-002	2,000000000000000E+000
1,5065725E-001	-2,596562206316666E-002	2,000000000000000E+000
1,4762011E-001	-2,587341291978684E-002	2,000000000000000E+000
1,4466786E-001	-2,626085705641240E-002	2,000000000000000E+000
1,4162120E-001	-2,636343176507361E-002	2,000000000000000E+000
1,3867317E-001	-2,674065441735574E-002	2,000000000000000E+000
1,3562439E-001	-2,678921949902568E-002	2,000000000000000E+000
1,3267638E-001	-2,717719500692001E-002	2,000000000000000E+000
1,2964137E-001	-2,702312278577462E-002	2,000000000000000E+000
1,2664987E-001	-2,693710159938845E-002	2,000000000000000E+000
1,2363715E-001	-2,702099906916067E-002	2,000000000000000E+000
1,2067004E-001	-2,738746951379456E-002	2,000000000000000E+000
1,1765201E-001	-2,736271038237542E-002	2,000000000000000E+000
1,1468808E-001	-2,736232269954703E-002	2,000000000000000E+000
1,1164352E-001	-2,759629614593001E-002	2,000000000000000E+000
1,0867537E-001	-2,722717223837706E-002	2,000000000000000E+000
1,0564779E-001	-2,776487011861822E-002	2,000000000000000E+000
1,0266158E-001	-2,773615109779509E-002	2,000000000000000E+000
9,9659465E-002	-2,793298547880513E-002	2,000000000000000E+000
9,6622348E-002	-2,810965982118629E-002	2,000000000000000E+000
9,3695551E-002	-2,837886335934542E-002	2,000000000000000E+000
9,0685993E-002	-2,846803155181182E-002	2,000000000000000E+000
8,7669037E-002	-2,847167377169368E-002	2,000000000000000E+000
8,4662683E-002	-2,879442724103370E-002	2,000000000000000E+000
8,1629798E-002	-2,903901253294949E-002	2,000000000000000E+000
7,8675419E-002	-2,909235037805041E-002	2,000000000000000E+000
7,5687103E-002	-2,912064743052012E-002	2,000000000000000E+000
7,2671190E-002	-2,928395223271862E-002	2,000000000000000E+000
6,9670133E-002	-2,922127683470738E-002	2,000000000000000E+000
6,6672266E-002	-2,947622382392487E-002	2,000000000000000E+000
6,3787445E-002	-2,955747641109546E-002	2,000000000000000E+000
6,3001849E-002	-2,853385545313358E-002	3,000000000000000E+000
6,6319004E-002	9,521841092742355E-004	3,000000000000000E+000
7,6474681E-002	1,363664200598806E-002	3,000000000000000E+000
8,6937070E-002	1,499348339550330E-002	3,000000000000000E+000
8,9951918E-002	1,546610377772592E-002	3,000000000000000E+000
9,2977367E-002	1,562281828410050E-002	3,000000000000000E+000
9,5944472E-002	1,580818774628928E-002	3,000000000000000E+000
9,8964624E-002	1,610923328533120E-002	3,000000000000000E+000
1,0198054E-001	1,674741365059160E-002	3,000000000000000E+000
1,0496144E-001	1,706756438660603E-002	3,000000000000000E+000
1,0791582E-001	1,741070955762952E-002	3,000000000000000E+000
1,1092430E-001	1,748464443860743E-002	3,000000000000000E+000
1,1394975E-001	1,756777715551539E-002	3,000000000000000E+000
1,1692322E-001	1,783592622955945E-002	3,000000000000000E+000
1,1994125E-001	1,780373402996502E-002	3,000000000000000E+000
1,2294123E-001	1,825937432133488E-002	3,000000000000000E+000
1,2589562E-001	1,836620922060528E-002	3,000000000000000E+000
1,2895925E-001	1,893222008786527E-002	3,000000000000000E+000
1,3196456E-001	1,907160081383258E-002	3,000000000000000E+000
1,4997727E-001	2,217881375731348E-002	3,000000000000000E+000
1,5297407E-001	2,103320598689612E-002	3,000000000000000E+000
1,5592633E-001	2,069435922708684E-002	3,000000000000000E+000
1,5893374E-001	2,037726442520371E-002	3,000000000000000E+000
1,6189131E-001	2,041886040792126E-002	3,000000000000000E+000
1,6490085E-001	2,069036294617248E-002	3,000000000000000E+000
1,6791463E-001	2,066645160731345E-002	3,000000000000000E+000
1,7090720E-001	2,098984259727233E-002	3,000000000000000E+000
1,7394644E-001	2,065644256799712E-002	3,000000000000000E+000
1,7693053E-001	2,094432080371517E-002	3,000000000000000E+000
1,7996234E-001	2,122148256320444E-002	3,000000000000000E+000
1,8297081E-001	2,140760073274983E-002	3,000000000000000E+000
1,8595597E-001	2,169700001306610E-002	3,000000000000000E+000
1,8896869E-001	2,216059647899882E-002	3,000000000000000E+000
1,9197717E-001	2,201168786349522E-002	3,000000000000000E+000
1,9496761E-001	2,231704019423991E-002	3,000000000000000E+000
1,9794109E-001	2,238799192410734E-002	3,000000000000000E+000
2,0097291E-001	2,273670779363288E-002	3,000000000000000E+000
2,0390821E-001	2,266494107728556E-002	3,000000000000000E+000
2,0695908E-001	2,268803818757684E-002	3,000000000000000E+000
2,0996651E-001	2,292240183386540E-002	3,000000000000000E+000
2,1296971E-001	2,269033688652500E-002	3,000000000000000E+000
2,1589543E-001	2,299561627296492E-002	3,000000000000000E+000
2,1895698E-001	2,302002326097051E-002	3,000000000000000E+000
2,2195272E-001	2,331639039847583E-002	3,000000000000000E+000
2,2495377E-001	2,299420278076375E-002	3,000000000000000E+000
2,2792935E-001	2,363949791025441E-002	3,000000000000000E+000
2,3096120E-001	2,388577947244314E-002	3,000000000000000E+000
2,3391449E-001	2,399436529311871E-002	3,000000000000000E+000
2,3698346E-001	2,409259052769305E-002	3,000000000000000E+000
2,3994738E-001	2,450613801678020E-002	3,000000000000000E+000
2,4295905E-001	2,478107013222247E-002	3,000000000000000E+000
2,4599510E-001	2,516045259148503E-002	3,000000000000000E+000
2,4898872E-001	2,524711019092751E-002	3,000000000000000E+000
2,5194415E-001	2,554655390081800E-002	3,000000000000000E+000
2,5491872E-001	2,555072875515593E-002	3,000000000000000E+000
2,5793248E-001	2,558952926362215E-002	3,000000000000000E+000
2,6096112E-001	2,587107618294082E-002	3,000000000000000E+000
2,6390913E-001	2,564919855002595E-002	3,000000000000000E+000
2,6695582E-001	2,628943473529144E-002	3,000000000000000E+000
2,6994839E-001	2,645164415298490E-002	3,000000000000000E+000
2,7293986E-001	2,678854485040783E-002	3,000000000000000E+000
2,7590379E-001	2,645991918527417E-002	3,000000000000000E+000
2,7894306E-001	2,713704827773555E-002	3,000000000000000E+000
2,8194305E-001	2,763859759660485E-002	3,000000000000000E+000
2,8493139E-001	2,772475882536857E-002	3,000000000000000E+000
2,8798229E-001	2,792396501091493E-002	3,000000000000000E+000
2,9093453E-001	2,862609906757532E-002	3,000000000000000E+000
2,9393029E-001	2,886311386666623E-002	3,000000000000000E+000
2,9695258E-001	2,911127090838928E-002	3,000000000000000E+000
2,9995358E-001	2,910943302857860E-002	3,000000000000000E+000
3,0292076E-001	2,948892049890778E-002	3,000000000000000E+000
3,0593982E-001	2,992188743034304E-002	3,000000000000000E+000
3,0893555E-001	3,011539799101431E-002	3,000000000000000E+000
3,1188038E-001	3,048268237519852E-002	3,000000000000000E+000
3,1486553E-001	3,023378272822203E-002	3,000000000000000E+000
3,1789950E-001	3,095650097990690E-002	3,000000000000000E+000
3,2092386E-001	3,134447635077076E-002	3,000000000000000E+000
3,2391006E-001	3,198283958853509E-002	3,000000000000000E+000
3,2693130E-001	3,227326241661402E-002	3,000000000000000E+000
3,2995251E-001	3,278414989997847E-002	3,000000000000000E+000
3,3288881E-001	3,327537346275582E-002	3,000000000000000E+000
3,3595252E-001	3,340854107106379E-002	3,000000000000000E+000
3,3887398E-001	3,387981692180292E-002	3,000000000000000E+000
3,4191221E-001	3,452655700433149E-002	3,000000000000000E+000
3,4494504E-001	3,472618912403247E-002	3,000000000000000E+000
3,4796521E-001	3,521475832894794E-002	3,000000000000000E+000
3,5090157E-001	3,565281806691534E-002	3,000000000000000E+000
3,5389304E-001	3,585697581770042E-002	3,000000000000000E+000
3,5690895E-001	3,628435461602442E-002	3,000000000000000E+000
3,5993758E-001	3,647641315627781E-002	3,000000000000000E+000
3,6275569E-001	3,702806739844777E-002	3,000000000000000E+000
3,6341932E-001	3,668697550892830E-002	3,000000000000000E+000
3,6024633E-001	1,482539196836692E-004	3,000000000000000E+000
3,5751256E-001	-6,836871191201958E-003	3,000000000000000E+000
3,5458571E-001	-9,850097285278858E-003	3,000000000000000E+000
3,5162818E-001	-1,114843182222103E-002	3,000000000000000E+000
3,4862822E-001	-1,264947345872419E-002	3,000000000000000E+000
3,4561333E-001	-1,376780953250998E-002	3,000000000000000E+000
3,4262928E-001	-1,432075173276342E-002	3,000000000000000E+000
3,3963245E-001	-1,487387208645588E-002	3,000000000000000E+000
3,3661973E-001	-1,594035504563687E-002	3,000000000000000E+000
3,3366111E-001	-1,657231548779234E-002	3,000000000000000E+000
3,3061019E-001	-1,713533789148236E-002	3,000000000000000E+000
3,2762185E-001	-1,751468352530433E-002	3,000000000000000E+000
3,0965692E-001	-1,940697148671044E-002	3,000000000000000E+000
3,0661663E-001	-1,974268616443925E-002	3,000000000000000E+000
3,0362934E-001	-1,998005683223403E-002	3,000000000000000E+000
3,0064422E-001	-1,994609713155016E-002	3,000000000000000E+000
2,9764420E-001	-2,066316421203526E-002	3,000000000000000E+000
2,9463467E-001	-2,068474270345178E-002	3,000000000000000E+000
2,9167500E-001	-2,111314378635146E-002	3,000000000000000E+000
2,8862831E-001	-2,087188120074443E-002	3,000000000000000E+000
2,8567925E-001	-2,140357799443238E-002	3,000000000000000E+000
2,8265804E-001	-2,130664765435425E-002	3,000000000000000E+000
2,7966440E-001	-2,126242941408740E-002	3,000000000000000E+000
2,7663684E-001	-2,181110618443599E-002	3,000000000000000E+000
2,7360079E-001	-2,205732314137601E-002	3,000000000000000E+000
2,7070478E-001	-2,219316601339311E-002	3,000000000000000E+000
2,6759866E-001	-2,248996849246196E-002	3,000000000000000E+000
2,6462096E-001	-2,247192746249813E-002	3,000000000000000E+000
2,5424421E-001	-2,305424612376716E-002	3,000000000000000E+000
2,4370268E-001	-2,357813309006618E-002	3,000000000000000E+000
2,4064647E-001	-2,331671154348033E-002	3,000000000000000E+000
2,3768677E-001	-2,349579123943424E-002	3,000000000000000E+000
2,3466133E-001	-2,386848705524852E-002	3,000000000000000E+000
2,3167194E-001	-2,393922910050603E-002	3,000000000000000E+000
2,2865283E-001	-2,375229525083938E-002	3,000000000000000E+000
2,2564012E-001	-2,387966327296459E-002	3,000000000000000E+000
2,2268468E-001	-2,409468058896080E-002	3,000000000000000E+000
2,1964438E-001	-2,410886397734024E-002	3,000000000000000E+000
2,1662210E-001	-2,407303438788699E-002	3,000000000000000E+000
2,1363060E-001	-2,405096304412124E-002	3,000000000000000E+000
2,1072610E-001	-2,395185421280788E-002	3,000000000000000E+000
2,0766453E-001	-2,423389614826499E-002	3,000000000000000E+000
2,0464544E-001	-2,449588443212430E-002	3,000000000000000E+000
2,0162107E-001	-2,470018318086253E-002	3,000000000000000E+000
1,9862534E-001	-2,447759838509639E-002	3,000000000000000E+000
1,9563806E-001	-2,469353313588529E-002	3,000000000000000E+000
1,9267096E-001	-2,484732253611177E-002	3,000000000000000E+000
1,8960731E-001	-2,506545061866439E-002	3,000000000000000E+000
1,8664551E-001	-2,516307249607058E-002	3,000000000000000E+000
1,8369323E-001	-2,538431230075525E-002	3,000000000000000E+000
1,8066779E-001	-2,540599606517285E-002	3,000000000000000E+000
1,7762749E-001	-2,543811199979656E-002	3,000000000000000E+000
1,7461795E-001	-2,535205486290371E-002	3,000000000000000E+000
1,7164446E-001	-2,555543476450522E-002	3,000000000000000E+000
1,6864446E-001	-2,552261018475586E-002	3,000000000000000E+000
1,6564023E-001	-2,583903301921159E-002	3,000000000000000E+000
1,6261797E-001	-2,599696081516517E-002	3,000000000000000E+000
1,5965828E-001	-2,559253685103613E-002	3,000000000000000E+000
1,5668482E-001	-2,584695529933223E-002	3,000000000000000E+000
1,5367316E-001	-2,567123679222683E-002	3,000000000000000E+000
1,5072726E-001	-2,610413238006809E-002	3,000000000000000E+000
1,4764239E-001	-2,602168455632631E-002	3,000000000000000E+000
1,4469227E-001	-2,645440405427105E-002	3,000000000000000E+000
1,4162543E-001	-2,657423743342706E-002	3,000000000000000E+000
1,3864876E-001	-2,679685811542887E-002	3,000000000000000E+000
1,3566363E-001	-2,682200755023390E-002	3,000000000000000E+000
1,3261908E-001	-2,731782661471194E-002	3,000000000000000E+000
1,2969865E-001	-2,716014615806572E-002	3,000000000000000E+000
1,2666154E-001	-2,713761625960209E-002	3,000000000000000E+000
1,2364988E-001	-2,736936102681073E-002	3,000000000000000E+000
1,2068383E-001	-2,733813015907399E-002	3,000000000000000E+000
1,1767854E-001	-2,737937017890441E-002	3,000000000000000E+000
1,1464565E-001	-2,741028454895267E-002	3,000000000000000E+000
1,1166582E-001	-2,764468349131560E-002	3,000000000000000E+000
1,0870294E-001	-2,732684726530943E-002	3,000000000000000E+000
1,0571992E-001	-2,764348007339218E-002	3,000000000000000E+000
1,0266157E-001	-2,751674917009139E-002	3,000000000000000E+000
9,9657349E-002	-2,781675818065793E-002	3,000000000000000E+000
9,6646748E-002	-2,814856681086692E-002	3,000000000000000E+000
9,3642496E-002	-2,843382708670111E-002	3,000000000000000E+000
9,0687066E-002	-2,853137960806224E-002	3,000000000000000E+000
8,7680697E-002	-2,878661061711482E-002	3,000000000000000E+000
8,4648892E-002	-2,881405679686901E-002	3,000000000000000E+000
8,1679657E-002	-2,910766701259293E-002	3,000000000000000E+000
7,8707241E-002	-2,907544295319681E-002	3,000000000000000E+000
7,5648911E-002	-2,895560841150449E-002	3,000000000000000E+000
7,2651036E-002	-2,912489225895509E-002	3,000000000000000E+000
6,9736965E-002	-2,921731464165434E-002	3,000000000000000E+000
6,6693485E-002	-2,947205105131914E-002	3,000000000000000E+000
6,3742444E-002	-2,942350521646279E-002	3,000000000000000E+000
6,3097328E-002	-2,881143987178802E-002	4,000000000000000E+000
6,6258550E-002	8,820446855553488E-004	4,000000000000000E+000
6,9163062E-002	8,809609125970980E-003	4,000000000000000E+000
7,2027281E-002	1,156869922690226E-002	4,000000000000000E+000
7,4985899E-002	1,304653900357763E-002	4,000000000000000E+000
7,7990130E-002	1,401702737065430E-002	4,000000000000000E+000
9,5980547E-002	1,554039339053914E-002	4,000000000000000E+000
9,8990098E-002	1,614461065380765E-002	4,000000000000000E+000
1,0195082E-001	1,672901806361760E-002	4,000000000000000E+000
1,0495400E-001	1,705801289143794E-002	4,000000000000000E+000
1,0793597E-001	1,720835944615828E-002	4,000000000000000E+000
1,1095294E-001	1,752108223809046E-002	4,000000000000000E+000
1,1396354E-001	1,768062599431786E-002	4,000000000000000E+000
1,1698687E-001	1,766046143469191E-002	4,000000000000000E+000
1,1996883E-001	1,782778837857930E-002	4,000000000000000E+000
1,2292959E-001	1,810690371955083E-002	4,000000000000000E+000
1,2595928E-001	1,846172312111274E-002	4,000000000000000E+000
1,2896350E-001	1,902667364083754E-002	4,000000000000000E+000
1,3196032E-001	1,898457639961440E-002	4,000000000000000E+000
1,3496563E-001	1,864461606419353E-002	4,000000000000000E+000
1,3797516E-001	1,919824679336873E-002	4,000000000000000E+000
1,4098470E-001	1,910662292236040E-002	4,000000000000000E+000
1,4400060E-001	1,941616162730497E-002	4,000000000000000E+000
1,6195709E-001	1,887855886828523E-002	4,000000000000000E+000
1,6494539E-001	1,996099248572134E-002	4,000000000000000E+000
1,6795708E-001	2,050615362895769E-002	4,000000000000000E+000
1,7092417E-001	2,078614443598775E-002	4,000000000000000E+000
1,7390719E-001	2,053062999443175E-002	4,000000000000000E+000
1,7691462E-001	2,083294052216739E-002	4,000000000000000E+000
1,7992732E-001	2,109559892010610E-002	4,000000000000000E+000
1,8294643E-001	2,138223965933633E-002	4,000000000000000E+000
1,8594323E-001	2,162724939100572E-002	4,000000000000000E+000
1,8896976E-001	2,195028637490593E-002	4,000000000000000E+000
1,9195490E-001	2,213261909855652E-002	4,000000000000000E+000
1,9494005E-001	2,244617663382092E-002	4,000000000000000E+000
1,9793154E-001	2,245643411717735E-002	4,000000000000000E+000
2,0092519E-001	2,270964980198181E-002	4,000000000000000E+000
2,0389971E-001	2,268351140608305E-002	4,000000000000000E+000
2,0694424E-001	2,267236981141549E-002	4,000000000000000E+000
2,0993471E-001	2,294436544252676E-002	4,000000000000000E+000
2,1292832E-001	2,267622483244253E-002	4,000000000000000E+000
2,1596123E-001	2,311237512791799E-002	4,000000000000000E+000
2,1894741E-001	2,323496864887101E-002	4,000000000000000E+000
2,2195908E-001	2,345755322555006E-002	4,000000000000000E+000
2,2494954E-001	2,314579958288565E-002	4,000000000000000E+000
2,2793786E-001	2,370475584434138E-002	4,000000000000000E+000
2,3092619E-001	2,414850914687527E-002	4,000000000000000E+000
2,3394209E-001	2,417489643711535E-002	4,000000000000000E+000
2,3698559E-001	2,422045366660721E-002	4,000000000000000E+000
2,3996222E-001	2,453637992342311E-002	4,000000000000000E+000
2,4297284E-001	2,471118021357044E-002	4,000000000000000E+000
2,4595584E-001	2,481392976753546E-002	4,000000000000000E+000
2,4896115E-001	2,490981767146472E-002	4,000000000000000E+000
2,5193995E-001	2,529786737472434E-002	4,000000000000000E+000
2,5491446E-001	2,538933447309927E-002	4,000000000000000E+000
2,5793248E-001	2,559706235155723E-002	4,000000000000000E+000
2,6094520E-001	2,580723296422449E-002	4,000000000000000E+000
2,6394731E-001	2,568371940004810E-002	4,000000000000000E+000
2,6693141E-001	2,609086790875561E-002	4,000000000000000E+000
2,6991338E-001	2,641153434483901E-002	4,000000000000000E+000
2,7293244E-001	2,674436815141240E-002	4,000000000000000E+000
2,7595896E-001	2,671200412886614E-002	4,000000000000000E+000
2,7893034E-001	2,718288672096816E-002	4,000000000000000E+000
2,8195047E-001	2,742786005183004E-002	4,000000000000000E+000
2,8496107E-001	2,772037436564762E-002	4,000000000000000E+000
2,8795683E-001	2,810102936766473E-002	4,000000000000000E+000
2,9098654E-001	2,891270417320710E-002	4,000000000000000E+000
2,9396951E-001	2,875969170296841E-002	4,000000000000000E+000
2,9693982E-001	2,897410723542443E-002	4,000000000000000E+000
2,9997167E-001	2,924437089556403E-002	4,000000000000000E+000
3,0292496E-001	2,952195567033628E-002	4,000000000000000E+000
3,0593026E-001	3,000454739150077E-002	4,000000000000000E+000
3,0890691E-001	3,012286150664700E-002	4,000000000000000E+000
3,1185177E-001	3,061263247097186E-002	4,000000000000000E+000
3,1492600E-001	3,050991619198207E-002	4,000000000000000E+000
3,1793237E-001	3,114785348063565E-002	4,000000000000000E+000
3,2094723E-001	3,144952652413250E-002	4,000000000000000E+000
3,2389200E-001	3,185840376237242E-002	4,000000000000000E+000
3,2699916E-001	3,231874800419782E-002	4,000000000000000E+000
3,2991642E-001	3,302251078558682E-002	4,000000000000000E+000
3,3291009E-001	3,312837309365736E-002	4,000000000000000E+000
3,3593658E-001	3,359518984183923E-002	4,000000000000000E+000
3,3895883E-001	3,406257371049548E-002	4,000000000000000E+000
3,4189415E-001	3,449794316515586E-002	4,000000000000000E+000
3,4493235E-001	3,485069216670433E-002	4,000000000000000E+000
3,4795034E-001	3,527888188788575E-002	4,000000000000000E+000
3,5091212E-001	3,557857799832059E-002	4,000000000000000E+000
3,5390788E-001	3,576518910227194E-002	4,000000000000000E+000
3,5693437E-001	3,631257882120231E-002	4,000000000000000E+000
3,5992378E-001	3,653396120676500E-002	4,000000000000000E+000
3,6275414E-001	3,714447243934671E-002	4,000000000000000E+000
3,6338112E-001	3,654627501964569E-002	4,000000000000000E+000
3,6025795E-001	6,923693738119466E-005	4,000000000000000E+000
3,5750085E-001	-7,057864318236767E-003	4,000000000000000E+000
3,5457408E-001	-1,008279757944469E-002	4,000000000000000E+000
3,5159847E-001	-1,083795281334057E-002	4,000000000000000E+000
3,4867489E-001	-1,236619355363978E-002	4,000000000000000E+000
3,4564093E-001	-1,340522852216153E-002	4,000000000000000E+000
3,4265262E-001	-1,432492599512138E-002	4,000000000000000E+000
3,3958474E-001	-1,497931054068935E-002	4,000000000000000E+000
3,3664307E-001	-1,584329817200737E-002	4,000000000000000E+000
3,3360279E-001	-1,642323052045769E-002	4,000000000000000E+000
3,3063674E-001	-1,684654160291957E-002	4,000000000000000E+000
3,2762614E-001	-1,755079638597738E-002	4,000000000000000E+000
3,2466432E-001	-1,844371871387310E-002	4,000000000000000E+000
3,2163465E-001	-1,855934452679420E-002	4,000000000000000E+000
3,1861129E-001	-1,882752049500086E-002	4,000000000000000E+000
3,0068451E-001	-2,018983562286147E-002	4,000000000000000E+000
2,9764211E-001	-2,050326594447442E-002	4,000000000000000E+000
2,9461876E-001	-2,088001647684401E-002	4,000000000000000E+000
2,9168028E-001	-2,106290956766721E-002	4,000000000000000E+000
2,8868774E-001	-2,088850803273901E-002	4,000000000000000E+000
2,8566968E-001	-2,115311757572469E-002	4,000000000000000E+000
2,8265062E-001	-2,120936642475296E-002	4,000000000000000E+000
2,7961135E-001	-2,141772921256946E-002	4,000000000000000E+000
2,7666759E-001	-2,161795632249175E-002	4,000000000000000E+000
2,7362940E-001	-2,197171452159330E-002	4,000000000000000E+000
2,7063900E-001	-2,223137147666415E-002	4,000000000000000E+000
2,6762518E-001	-2,234457313615046E-002	4,000000000000000E+000
2,6466125E-001	-2,234775885881390E-002	4,000000000000000E+000
2,6164109E-001	-2,244751675203188E-002	4,000000000000000E+000
2,5866765E-001	-2,231167520100519E-002	4,000000000000000E+000
2,5568146E-001	-2,247652478116730E-002	4,000000000000000E+000
2,5268781E-001	-2,275599328964339E-002	4,000000000000000E+000
2,3461993E-001	-2,323238833438762E-002	4,000000000000000E+000
2,3167937E-001	-2,380015279211672E-002	4,000000000000000E+000
2,2866665E-001	-2,382413244009107E-002	4,000000000000000E+000
2,2566983E-001	-2,388316519500217E-002	4,000000000000000E+000
2,2264756E-001	-2,415311160600842E-002	4,000000000000000E+000
2,1968257E-001	-2,424574579142952E-002	4,000000000000000E+000
2,1663588E-001	-2,436692495312953E-002	4,000000000000000E+000
2,1364225E-001	-2,440692767413566E-002	4,000000000000000E+000
2,1063167E-001	-2,413139396998720E-002	4,000000000000000E+000
2,0769425E-001	-2,433569241758154E-002	4,000000000000000E+000
2,0464121E-001	-2,463315519222914E-002	4,000000000000000E+000
2,0166670E-001	-2,489220668414616E-002	4,000000000000000E+000
1,9865607E-001	-2,449415202297839E-002	4,000000000000000E+000
1,9567943E-001	-2,464139778951191E-002	4,000000000000000E+000
1,9267944E-001	-2,494013319826789E-002	4,000000000000000E+000
1,8968792E-001	-2,524979847172898E-002	4,000000000000000E+000
1,8666989E-001	-2,529931880134328E-002	4,000000000000000E+000
1,8366779E-001	-2,568096175390455E-002	4,000000000000000E+000
1,8065082E-001	-2,574006670450510E-002	4,000000000000000E+000
1,7764552E-001	-2,546435580855660E-002	4,000000000000000E+000
1,7465506E-001	-2,540256400445495E-002	4,000000000000000E+000
1,7162326E-001	-2,554252372404622E-002	4,000000000000000E+000
1,6864766E-001	-2,557637317254874E-002	4,000000000000000E+000
1,6563599E-001	-2,575417956500625E-002	4,000000000000000E+000
1,6265404E-001	-2,586743467812389E-002	4,000000000000000E+000
1,5965934E-001	-2,570742012297458E-002	4,000000000000000E+000
1,5664130E-001	-2,607109564430866E-002	4,000000000000000E+000
1,5363283E-001	-2,587677253217802E-002	4,000000000000000E+000
1,5068695E-001	-2,618353885110186E-002	4,000000000000000E+000
1,4765620E-001	-2,614045818174621E-002	4,000000000000000E+000
1,4468485E-001	-2,650119989711025E-002	4,000000000000000E+000
1,4162967E-001	-2,671922050002545E-002	4,000000000000000E+000
1,3868167E-001	-2,687233833744862E-002	4,000000000000000E+000
1,3565198E-001	-2,705541410735651E-002	4,000000000000000E+000
1,3265622E-001	-2,728740842333838E-002	4,000000000000000E+000
1,2970608E-001	-2,709036034341106E-002	4,000000000000000E+000
1,2664561E-001	-2,706294895445645E-002	4,000000000000000E+000
1,2364776E-001	-2,715066670942984E-002	4,000000000000000E+000
1,2064777E-001	-2,701438531221356E-002	4,000000000000000E+000
1,1766154E-001	-2,728698368244092E-002	4,000000000000000E+000
1,1468383E-001	-2,750932079207913E-002	4,000000000000000E+000
1,1162868E-001	-2,774545289503294E-002	4,000000000000000E+000
1,0868489E-001	-2,744225816180310E-002	4,000000000000000E+000
1,0567537E-001	-2,767559675663100E-002	4,000000000000000E+000
1,0262445E-001	-2,767902639162556E-002	4,000000000000000E+000
9,9675372E-002	-2,802533778392691E-002	4,000000000000000E+000
9,6658416E-002	-2,816016927317830E-002	4,000000000000000E+000
9,3682818E-002	-2,847206382244216E-002	4,000000000000000E+000
9,0713575E-002	-2,870826625561072E-002	4,000000000000000E+000
8,7700851E-002	-2,885186945827123E-002	4,000000000000000E+000
8,4682837E-002	-2,881748869630318E-002	4,000000000000000E+000
8,1715725E-002	-2,904463761781999E-002	4,000000000000000E+000
7,8692392E-002	-2,884925152264058E-002	4,000000000000000E+000
7,5652085E-002	-2,888876008890092E-002	4,000000000000000E+000
7,2661646E-002	-2,908672645288685E-002	4,000000000000000E+000
6,9686048E-002	-2,909617167380124E-002	4,000000000000000E+000
6,6694535E-002	-2,928278344714069E-002	4,000000000000000E+000
6,3754715E-002	-2,948967207755365E-002	4,000000000000000E+000
6,3173704E-002	-2,880921214818954E-002	4,000000000000000E+000
6,6263847E-002	7,879953635412905E-004	4,000000000000000E+000
6,9174729E-002	8,852301242718047E-003	4,000000000000000E+000
7,2007127E-002	1,147839976581760E-002	4,000000000000000E+000
7,5017720E-002	1,286859117640737E-002	4,000000000000000E+000
7,7989072E-002	1,400439999391285E-002	4,000000000000000E+000
8,0951937E-002	1,422178500878443E-002	4,000000000000000E+000
8,3980568E-002	1,437939471705046E-002	4,000000000000000E+000
8,6978450E-002	1,481002714677340E-002	4,000000000000000E+000
8,9960404E-002	1,521395596986018E-002	4,000000000000000E+000
1,0796991E-001	1,727168167801418E-002	4,000000000000000E+000
1,1094551E-001	1,741990644728104E-002	4,000000000000000E+000
1,1395186E-001	1,755539621101182E-002	4,000000000000000E+000
1,1693807E-001	1,774005638900339E-002	4,000000000000000E+000
1,1995506E-001	1,779736667029086E-002	4,000000000000000E+000
1,2294443E-001	1,781080787380535E-002	4,000000000000000E+000
1,2593700E-001	1,861702130958701E-002	4,000000000000000E+000
1,2895927E-001	1,902561197877944E-002	4,000000000000000E+000
1,3197517E-001	1,899271416995263E-002	4,000000000000000E+000
1,3456891E-001	1,875746622681618E-002	4,000000000000000E+000
1,3472168E-001	1,881477609276772E-002	4,000000000000000E+000